"AN","Code","RN","acc","accuracy","average_response_time","avg_rt","background","canvas_backend","clock_backend","color_backend","correct","correct_instruction","count_ending_sketchpad","count_experiment","count_eyetracker_calibration","count_instruction","count_instruction_pygaze_log","count_list_filter","count_liste_auswahl","count_logger","count_pygaze_start_recording","count_pygaze_stop_recording","count_question_pygaze_log","count_question_sketchpad","count_sentence_script","count_trial_loop","count_trial_sequence","datetime","description","disable_garbage_collection","experiment_file","experiment_path","font_bold","font_family","font_italic","font_size","font_underline","foreground","form_clicks","fullscreen","height","item","keyboard_backend","list","live_row","live_row_trial_loop","logfile","mouse_backend","opensesame_codename","opensesame_version","psychopy_screen","repeat_cycle","response","response_ending_sketchpad","response_instruction","response_question_sketchpad","response_time","response_time_ending_sketchpad","response_time_instruction","response_time_question_sketchpad","round_decimals","sampler_backend","selected_list","sentence_text","skip_trial","sound_buf_size","sound_channels","sound_freq","sound_sample_size","start","subject_nr","subject_parity","time_ending_sketchpad","time_experiment","time_eyetracker_calibration","time_instruction","time_instruction_pygaze_log","time_list_filter","time_liste_auswahl","time_logger","time_pygaze_start_recording","time_pygaze_stop_recording","time_question_pygaze_log","time_question_sketchpad","time_sentence_script","time_trial_loop","time_trial_sequence","title","total_correct","total_response_time","total_responses","width"
"<AN>Frauen</AN>","C2","<RN>Experten</RN>","undefined","undefined","undefined","undefined","#232323","psycho","psycho","psycho","undefined","undefined","0","0","0","0","0","0","0","0","0","0","0","0","0","0","0","Thu Jul 23 13:29:22 2026","The main experiment item","False","experiment.osexp","C:\Users\sschu\Documents\GitHub\ET_course_project_gender-bias\experiment","False","mono","False","18","no","white","no","no","1080","10","psycho","5","0","0","C:\Users\sschu\Documents\GitHub\ET_course_project_gender-bias\experiment\subject-1.csv","psycho","Neonatal Nightingale","4.1.9","2","0","right","NA","right","NA","5436.1836000025505","NA","5436.1836000025505","NA","2","psycho","1","Im Rahmen einer universitären Veranstaltung werden aktuelle Fragestellungen der Rüstungsindustrie behandelt. Die große Mehrheit dieser <RN>Fachleute</RN> sehen eine stärkere Aufrüstung für Deutschland als notwendig, doch diese Gruppe von <AN>Frauen</AN> kritisiert dessen Finanzierung. Die Auswirkungen der Entscheidung werden noch geprüft.","1","1024","2","48000","-16","experiment","1","odd","NA","7471.518400001514","7472.4664999994275","8691.086999999243","14129.050800002005","14187.82629999987","14171.609400000307","14187.880099998438","8658.026500001142","NA","NA","NA","NA","14171.639899999718","14187.742400001298","Experiment","0","0","0","1920"
"<AN>Frauen</AN>","C6","<RN>Arbeitnehmer*innen</RN>","undefined","undefined","undefined","undefined","#232323","psycho","psycho","psycho","undefined","undefined","0","0","0","0","0","1","0","1","0","0","1","1","1","0","1","Thu Jul 23 13:29:22 2026","The main experiment item","False","experiment.osexp","C:\Users\sschu\Documents\GitHub\ET_course_project_gender-bias\experiment","False","mono","False","39","no","white","no","no","1080","12","psycho","1","1","1","C:\Users\sschu\Documents\GitHub\ET_course_project_gender-bias\experiment\subject-1.csv","psycho","Neonatal Nightingale","4.1.9","2","0","right","NA","right","right","854.34449999957","NA","5436.1836000025505","854.34449999957","2","psycho","1","Auf einer Gewerkschaftsveranstaltung wird derzeit über Löhne, Arbeitsbedingungen und Arbeitnehmerrechte diskutiert. Die <RN>Beschäftigten</RN> fordern bessere Bezahlung und faire Arbeitsbedingungen, doch diese <AN>Frauen</AN> sehen vor allem strukturelle Probleme. Die kommenden Entwicklungen sind weiterhin Gegenstand von Diskussionen.","0","1024","2","48000","-16","experiment","1","odd","NA","7471.518400001514","7472.4664999994275","8691.086999999243","14129.050800002005","14207.927800001926","14171.609400000307","23495.154600001115","8658.026500001142","NA","23452.705600000627","22597.851599999558","14207.970300001762","14171.639899999718","14207.654099998763","Experiment","0","0","0","1920"
"<AN>Frauen</AN>","C4","<RN>Expertinnen</RN>","undefined","undefined","undefined","undefined","#232323","psycho","psycho","psycho","undefined","undefined","0","0","0","0","0","2","0","2","0","0","2","2","2","0","2","Thu Jul 23 13:29:22 2026","The main experiment item","False","experiment.osexp","C:\Users\sschu\Documents\GitHub\ET_course_project_gender-bias\experiment","False","mono","False","39","no","white","no","no","1080","7","psycho","4","2","2","C:\Users\sschu\Documents\GitHub\ET_course_project_gender-bias\experiment\subject-1.csv","psycho","Neonatal Nightingale","4.1.9","2","0","right","NA","right","right","854.34449999957","NA","5436.1836000025505","854.34449999957","2","psycho","1","Beim Sommerfest eines Unternehmens wird über wirtschaftliche Entwicklungen und gesellschaftliche Herausforderungen diskutiert. Die <RN>Fachleute</RN> sehen große Herausforderungen im nächsten Geschäftsjahr, dennoch bleiben diese <AN>Männer</AN> optimistisch. Die unternehmerischen Folgen werden unterschiedlich bewertet.","1","1024","2","48000","-16","experiment","1","odd","NA","7471.518400001514","7472.4664999994275","8691.086999999243","14129.050800002005","23527.585499999986","14171.609400000307","23527.638700001262","8658.026500001142","NA","23452.705600000627","22597.851599999558","14207.970300001762","14171.639899999718","23527.447600001324","Experiment","0","0","0","1920"
"<AN>Frauen</AN>","C2","<RN>Professoren</RN>","undefined","undefined","undefined","undefined","#232323","psycho","psycho","psycho","undefined","undefined","0","0","0","0","0","3","0","3","0","0","3","3","3","0","3","Thu Jul 23 13:29:22 2026","The main experiment item","False","experiment.osexp","C:\Users\sschu\Documents\GitHub\ET_course_project_gender-bias\experiment","False","mono","False","39","no","white","no","no","1080","15","psycho","6","3","3","C:\Users\sschu\Documents\GitHub\ET_course_project_gender-bias\experiment\subject-1.csv","psycho","Neonatal Nightingale","4.1.9","2","0","right","NA","right","right","854.34449999957","NA","5436.1836000025505","854.34449999957","2","psycho","1","Im Rahmen einer öffentlichen Veranstaltung wird über die Zukunft der Hochschulen und die Forschungsförderung diskutiert. Die <RN>Professorinnen</RN> diskutieren über die Zukunft der Hochschulen und setzen sich für mehr Forschungsgelder ein, doch diese <AN>Männer</AN> lehnen die Vorschläge ab. Die nächsten Schritte werden derzeit kontrovers diskutiert.","1","1024","2","48000","-16","experiment","1","odd","NA","7471.518400001514","7472.4664999994275","8691.086999999243","14129.050800002005","23546.605999999883","14171.609400000307","23546.65609999938","8658.026500001142","NA","23452.705600000627","22597.851599999558","14207.970300001762","14171.639899999718","23546.529800001736","Experiment","0","0","0","1920"
"<AN>Männer</AN>","C3","<RN>Expertinnen</RN>","undefined","undefined","undefined","undefined","#232323","psycho","psycho","psycho","undefined","undefined","0","0","0","0","0","4","0","4","0","0","4","4","4","0","4","Thu Jul 23 13:29:22 2026","The main experiment item","False","experiment.osexp","C:\Users\sschu\Documents\GitHub\ET_course_project_gender-bias\experiment","False","mono","False","39","no","white","no","no","1080","14","psycho","2","4","4","C:\Users\sschu\Documents\GitHub\ET_course_project_gender-bias\experiment\subject-1.csv","psycho","Neonatal Nightingale","4.1.9","2","0","right","NA","right","right","854.34449999957","NA","5436.1836000025505","854.34449999957","2","psycho","1","Auf einer öffentlichen Veranstaltung stehen Investitionen und langfristige gesellschaftliche Entwicklungen zur Diskussion. Die <RN>Fachfrauen</RN> unterstützen höhere Investitionen und langfristige Entwicklungen, doch diese <AN>Männer</AN> kritisieren die Umsetzung. Die politischen Folgen werden unterschiedlich bewertet.","1","1024","2","48000","-16","experiment","1","odd","NA","7471.518400001514","7472.4664999994275","8691.086999999243","14129.050800002005","23566.881800001283","14171.609400000307","23566.93129999985","8658.026500001142","NA","23452.705600000627","22597.851599999558","14207.970300001762","14171.639899999718","23566.806499999075","Experiment","0","0","0","1920"
"<AN>Männer</AN>","C1","<RN>Experten</RN>","undefined","undefined","undefined","undefined","#232323","psycho","psycho","psycho","undefined","undefined","0","0","0","0","0","5","0","5","0","0","5","5","5","0","5","Thu Jul 23 13:29:22 2026","The main experiment item","False","experiment.osexp","C:\Users\sschu\Documents\GitHub\ET_course_project_gender-bias\experiment","False","mono","False","39","no","white","no","no","1080","14","psycho","6","5","5","C:\Users\sschu\Documents\GitHub\ET_course_project_gender-bias\experiment\subject-1.csv","psycho","Neonatal Nightingale","4.1.9","2","0","right","NA","right","right","854.34449999957","NA","5436.1836000025505","854.34449999957","2","psycho","1","Auf einer öffentlichen Veranstaltung stehen Investitionen und langfristige gesellschaftliche Entwicklungen zur Diskussion. Die <RN>Fachfrauen</RN> unterstützen höhere Investitionen und langfristige Entwicklungen, doch diese <AN>Männer</AN> kritisieren die Umsetzung. Die politischen Folgen werden unterschiedlich bewertet.","1","1024","2","48000","-16","experiment","1","odd","NA","7471.518400001514","7472.4664999994275","8691.086999999243","14129.050800002005","23586.58490000016","14171.609400000307","23586.635200001183","8658.026500001142","NA","23452.705600000627","22597.851599999558","14207.970300001762","14171.639899999718","23586.511199999222","Experiment","0","0","0","1920"
"<AN>Männer</AN>","C3","<RN>Dozentinnen</RN>","undefined","undefined","undefined","undefined","#232323","psycho","psycho","psycho","undefined","undefined","0","0","0","0","0","6","0","6","0","0","6","6","6","0","6","Thu Jul 23 13:29:22 2026","The main experiment item","False","experiment.osexp","C:\Users\sschu\Documents\GitHub\ET_course_project_gender-bias\experiment","False","mono","False","39","no","white","no","no","1080","9","psycho","1","6","6","C:\Users\sschu\Documents\GitHub\ET_course_project_gender-bias\experiment\subject-1.csv","psycho","Neonatal Nightingale","4.1.9","2","0","right","NA","right","right","909.8358000010194","NA","5436.1836000025505","909.8358000010194","2","psycho","1","Auf einer schulischen Tagung werden aktuelle Kontroversen rund um Vorlesungsführung und Leistungsbewertung diskutiert. Die <RN>Dozent*innen</RN> fordern erhöhte Leistungsorientierung und strengere Notenvergabe im Lehrplan, doch diese <AN>Männer</AN> stoßen dabei auf Gegendruck von Eltern. Die Debatte über das Thema hält weiter an.","0","1024","2","48000","-16","experiment","1","odd","NA","7471.518400001514","7472.4664999994275","8691.086999999243","14129.050800002005","23606.949299999542","14171.609400000307","31699.980500001402","8658.026500001142","NA","31657.521000000997","30746.957499999553","23606.988999999885","14171.639899999718","23606.873500000802","Experiment","0","0","0","1920"
"<AN>Männer</AN>","C5","<RN>Expert*innen</RN>","undefined","undefined","undefined","undefined","#232323","psycho","psycho","psycho","undefined","undefined","0","0","0","0","0","7","0","7","0","0","7","7","7","0","7","Thu Jul 23 13:29:22 2026","The main experiment item","False","experiment.osexp","C:\Users\sschu\Documents\GitHub\ET_course_project_gender-bias\experiment","False","mono","False","39","no","white","no","no","1080","14","psycho","4","7","7","C:\Users\sschu\Documents\GitHub\ET_course_project_gender-bias\experiment\subject-1.csv","psycho","Neonatal Nightingale","4.1.9","2","0","right","NA","right","right","909.8358000010194","NA","5436.1836000025505","909.8358000010194","2","psycho","1","Auf einer öffentlichen Veranstaltung stehen Investitionen und langfristige gesellschaftliche Entwicklungen zur Diskussion. Die <RN>Fachfrauen</RN> unterstützen höhere Investitionen und langfristige Entwicklungen, doch diese <AN>Männer</AN> kritisieren die Umsetzung. Die politischen Folgen werden unterschiedlich bewertet.","1","1024","2","48000","-16","experiment","1","odd","NA","7471.518400001514","7472.4664999994275","8691.086999999243","14129.050800002005","31728.002500000002","14171.609400000307","31728.075300001365","8658.026500001142","NA","31657.521000000997","30746.957499999553","23606.988999999885","14171.639899999718","31727.69519999929","Experiment","0","0","0","1920"
"<AN>Frauen</AN>","C6","<RN>Polizist*innen</RN>","undefined","undefined","undefined","undefined","#232323","psycho","psycho","psycho","undefined","undefined","0","0","0","0","0","8","0","8","0","0","8","8","8","0","8","Thu Jul 23 13:29:22 2026","The main experiment item","False","experiment.osexp","C:\Users\sschu\Documents\GitHub\ET_course_project_gender-bias\experiment","False","mono","False","39","no","white","no","no","1080","18","psycho","1","8","8","C:\Users\sschu\Documents\GitHub\ET_course_project_gender-bias\experiment\subject-1.csv","psycho","Neonatal Nightingale","4.1.9","2","0","right","NA","right","right","902.4931999992987","NA","5436.1836000025505","902.4931999992987","2","psycho","1","Bei einer öffentlichen Sitzung im Rathaus wird über neue Verkehrsregelungen gesprochen. Die <RN>Polizistinnen</RN> diskutieren laut über mehr Sicherheit im Straßenverkehr und setzen sich für strengere Kontrollen ein, doch diese <AN>Männer</AN> lehnen die Vorschläge ab. Die nächsten Maßnahmen werden derzeit kontrovers verhandelt.","0","1024","2","48000","-16","experiment","1","odd","NA","7471.518400001514","7472.4664999994275","8691.086999999243","14129.050800002005","31747.77510000058","14171.609400000307","39018.81169999979","8658.026500001142","NA","38974.64930000206","38071.680600001855","31747.81300000177","14171.639899999718","31747.70340000032","Experiment","0","0","0","1920"
"<AN>Frauen</AN>","C2","<RN>Krankenpfleger</RN>","undefined","undefined","undefined","undefined","#232323","psycho","psycho","psycho","undefined","undefined","0","0","0","0","0","9","0","9","0","0","9","9","9","0","9","Thu Jul 23 13:29:22 2026","The main experiment item","False","experiment.osexp","C:\Users\sschu\Documents\GitHub\ET_course_project_gender-bias\experiment","False","mono","False","39","no","white","no","no","1080","16","psycho","5","9","9","C:\Users\sschu\Documents\GitHub\ET_course_project_gender-bias\experiment\subject-1.csv","psycho","Neonatal Nightingale","4.1.9","2","0","right","NA","right","right","902.4931999992987","NA","5436.1836000025505","902.4931999992987","2","psycho","1","Bei einer Informationsveranstaltung im Krankenhaus wird über aktuelle Impfreformen und deren Auswirkungen gesprochen. Die <RN>Krankenschwestern</RN> diskutieren über Langzeitfolgen von Corona und setzen sich für mehr Unterstützung ein, doch diese <AN>Männer</AN> lehnen die Vorschläge ab. Die nächsten Schritte werden derzeit kontrovers diskutiert.","1","1024","2","48000","-16","experiment","1","odd","NA","7471.518400001514","7472.4664999994275","8691.086999999243","14129.050800002005","39049.5665999988","14171.609400000307","39049.61760000151","8658.026500001142","NA","38974.64930000206","38071.680600001855","31747.81300000177","14171.639899999718","39049.47080000056","Experiment","0","0","0","1920"
"<AN>Frauen</AN>","C4","<RN>Einwohnerinnen</RN>","undefined","undefined","undefined","undefined","#232323","psycho","psycho","psycho","undefined","undefined","0","0","0","0","0","10","0","10","0","0","10","10","10","0","10","Thu Jul 23 13:29:22 2026","The main experiment item","False","experiment.osexp","C:\Users\sschu\Documents\GitHub\ET_course_project_gender-bias\experiment","False","mono","False","39","no","white","no","no","1080","8","psycho","3","10","10","C:\Users\sschu\Documents\GitHub\ET_course_project_gender-bias\experiment\subject-1.csv","psycho","Neonatal Nightingale","4.1.9","2","0","right","NA","right","right","902.4931999992987","NA","5436.1836000025505","902.4931999992987","2","psycho","1","Im Rahmen einer öffentlichen Veranstaltung wird derzeit über Fragen der inneren Sicherheit und gesellschaftliche Entwicklungen gesprochen. Die <RN>Bürger</RN> diskutieren über Fragen der inneren Sicherheit bezüglich der aktuellen Krise, doch diese <AN>Männer</AN> fordern härtere Maßnahmen. Die weiteren Maßnahmen stoßen auf geteilte Reaktionen.","1","1024","2","48000","-16","experiment","1","odd","NA","7471.518400001514","7472.4664999994275","8691.086999999243","14129.050800002005","39069.56809999974","14171.609400000307","39069.62829999975","8658.026500001142","NA","38974.64930000206","38071.680600001855","31747.81300000177","14171.639899999718","39069.47769999897","Experiment","0","0","0","1920"
"<AN>Männer</AN>","C3","<RN>Einwohnerinnen</RN>","undefined","undefined","undefined","undefined","#232323","psycho","psycho","psycho","undefined","undefined","0","0","0","0","0","11","0","11","0","0","11","11","11","0","11","Thu Jul 23 13:29:22 2026","The main experiment item","False","experiment.osexp","C:\Users\sschu\Documents\GitHub\ET_course_project_gender-bias\experiment","False","mono","False","39","no","white","no","no","1080","8","psycho","2","11","11","C:\Users\sschu\Documents\GitHub\ET_course_project_gender-bias\experiment\subject-1.csv","psycho","Neonatal Nightingale","4.1.9","2","0","right","NA","right","right","902.4931999992987","NA","5436.1836000025505","902.4931999992987","2","psycho","1","Im Rahmen einer öffentlichen Veranstaltung wird derzeit über Fragen der inneren Sicherheit und gesellschaftliche Entwicklungen gesprochen. Die <RN>Bürger</RN> diskutieren über Fragen der inneren Sicherheit bezüglich der aktuellen Krise, doch diese <AN>Männer</AN> fordern härtere Maßnahmen. Die weiteren Maßnahmen stoßen auf geteilte Reaktionen.","1","1024","2","48000","-16","experiment","1","odd","NA","7471.518400001514","7472.4664999994275","8691.086999999243","14129.050800002005","39088.62399999998","14171.609400000307","39088.67720000126","8658.026500001142","NA","38974.64930000206","38071.680600001855","31747.81300000177","14171.639899999718","39088.52630000183","Experiment","0","0","0","1920"
"<AN>Frauen</AN>","C2","<RN>Dozenten</RN>","undefined","undefined","undefined","undefined","#232323","psycho","psycho","psycho","undefined","undefined","0","0","0","0","0","12","0","12","0","0","12","12","12","0","12","Thu Jul 23 13:29:22 2026","The main experiment item","False","experiment.osexp","C:\Users\sschu\Documents\GitHub\ET_course_project_gender-bias\experiment","False","mono","False","39","no","white","no","no","1080","9","psycho","6","12","12","C:\Users\sschu\Documents\GitHub\ET_course_project_gender-bias\experiment\subject-1.csv","psycho","Neonatal Nightingale","4.1.9","2","0","right","NA","right","right","902.4931999992987","NA","5436.1836000025505","902.4931999992987","2","psycho","1","Auf einer schulischen Tagung werden aktuelle Kontroversen rund um Vorlesungsführung und Leistungsbewertung diskutiert. Die <RN>Dozent*innen</RN> fordern erhöhte Leistungsorientierung und strengere Notenvergabe im Lehrplan, doch diese <AN>Männer</AN> stoßen dabei auf Gegendruck von Eltern. Die Debatte über das Thema hält weiter an.","1","1024","2","48000","-16","experiment","1","odd","NA","7471.518400001514","7472.4664999994275","8691.086999999243","14129.050800002005","39108.50550000032","14171.609400000307","39108.55630000151","8658.026500001142","NA","38974.64930000206","38071.680600001855","31747.81300000177","14171.639899999718","39108.429899999464","Experiment","0","0","0","1920"
"<AN>Frauen</AN>","C6","<RN>Dozent*innen</RN>","undefined","undefined","undefined","undefined","#232323","psycho","psycho","psycho","undefined","undefined","0","0","0","0","0","13","0","13","0","0","13","13","13","0","13","Thu Jul 23 13:29:22 2026","The main experiment item","False","experiment.osexp","C:\Users\sschu\Documents\GitHub\ET_course_project_gender-bias\experiment","False","mono","False","39","no","white","no","no","1080","9","psycho","4","13","13","C:\Users\sschu\Documents\GitHub\ET_course_project_gender-bias\experiment\subject-1.csv","psycho","Neonatal Nightingale","4.1.9","2","0","right","NA","right","right","902.4931999992987","NA","5436.1836000025505","902.4931999992987","2","psycho","1","Auf einer schulischen Tagung werden aktuelle Kontroversen rund um Vorlesungsführung und Leistungsbewertung diskutiert. Die <RN>Dozent*innen</RN> fordern erhöhte Leistungsorientierung und strengere Notenvergabe im Lehrplan, doch diese <AN>Männer</AN> stoßen dabei auf Gegendruck von Eltern. Die Debatte über das Thema hält weiter an.","1","1024","2","48000","-16","experiment","1","odd","NA","7471.518400001514","7472.4664999994275","8691.086999999243","14129.050800002005","39128.35189999896","14171.609400000307","39128.40399999914","8658.026500001142","NA","38974.64930000206","38071.680600001855","31747.81300000177","14171.639899999718","39128.27280000056","Experiment","0","0","0","1920"
"<AN>Frauen</AN>","C6","<RN>Pfleger*innen</RN>","undefined","undefined","undefined","undefined","#232323","psycho","psycho","psycho","undefined","undefined","0","0","0","0","0","14","0","14","0","0","14","14","14","0","14","Thu Jul 23 13:29:22 2026","The main experiment item","False","experiment.osexp","C:\Users\sschu\Documents\GitHub\ET_course_project_gender-bias\experiment","False","mono","False","39","no","white","no","no","1080","2","psycho","5","14","14","C:\Users\sschu\Documents\GitHub\ET_course_project_gender-bias\experiment\subject-1.csv","psycho","Neonatal Nightingale","4.1.9","2","0","right","NA","right","right","902.4931999992987","NA","5436.1836000025505","902.4931999992987","2","psycho","1","Im Rahmen einer Gesprächsrunde im Gesundheitswesen wird derzeit über aktuelle gesellschaftliche Herausforderungen diskutiert. Die <RN>Pflegekräfte</RN> verdienen bessere Arbeitsbedingungen und benötigen mehr Unterstützung, doch diese <AN>Männer</AN> fühlen sich politisch nicht ausreichend unterstützt. Die nächsten Schritte werden derzeit kontrovers diskutiert.","1","1024","2","48000","-16","experiment","1","odd","NA","7471.518400001514","7472.4664999994275","8691.086999999243","14129.050800002005","39148.70710000105","14171.609400000307","39148.757700000715","8658.026500001142","NA","38974.64930000206","38071.680600001855","31747.81300000177","14171.639899999718","39148.631600000954","Experiment","0","0","0","1920"
"<AN>Männer</AN>","C1","<RN>Dozenten</RN>","undefined","undefined","undefined","undefined","#232323","psycho","psycho","psycho","undefined","undefined","0","0","0","0","0","15","0","15","0","0","15","15","15","0","15","Thu Jul 23 13:29:22 2026","The main experiment item","False","experiment.osexp","C:\Users\sschu\Documents\GitHub\ET_course_project_gender-bias\experiment","False","mono","False","39","no","white","no","no","1080","9","psycho","5","15","15","C:\Users\sschu\Documents\GitHub\ET_course_project_gender-bias\experiment\subject-1.csv","psycho","Neonatal Nightingale","4.1.9","2","0","right","NA","right","right","902.4931999992987","NA","5436.1836000025505","902.4931999992987","2","psycho","1","Auf einer schulischen Tagung werden aktuelle Kontroversen rund um Vorlesungsführung und Leistungsbewertung diskutiert. Die <RN>Dozent*innen</RN> fordern erhöhte Leistungsorientierung und strengere Notenvergabe im Lehrplan, doch diese <AN>Männer</AN> stoßen dabei auf Gegendruck von Eltern. Die Debatte über das Thema hält weiter an.","1","1024","2","48000","-16","experiment","1","odd","NA","7471.518400001514","7472.4664999994275","8691.086999999243","14129.050800002005","39167.95970000021","14171.609400000307","39168.03989999971","8658.026500001142","NA","38974.64930000206","38071.680600001855","31747.81300000177","14171.639899999718","39167.80629999994","Experiment","0","0","0","1920"
"<AN>Männer</AN>","C3","<RN>Professorinnen</RN>","undefined","undefined","undefined","undefined","#232323","psycho","psycho","psycho","undefined","undefined","0","0","0","0","0","16","0","16","0","0","16","16","16","0","16","Thu Jul 23 13:29:22 2026","The main experiment item","False","experiment.osexp","C:\Users\sschu\Documents\GitHub\ET_course_project_gender-bias\experiment","False","mono","False","39","no","white","no","no","1080","15","psycho","1","16","16","C:\Users\sschu\Documents\GitHub\ET_course_project_gender-bias\experiment\subject-1.csv","psycho","Neonatal Nightingale","4.1.9","2","0","right","NA","right","right","1797.088299997995","NA","5436.1836000025505","1797.088299997995","2","psycho","1","Im Rahmen einer öffentlichen Veranstaltung wird über die Zukunft der Hochschulen und die Forschungsförderung diskutiert. Die <RN>Professorinnen</RN> diskutieren über die Zukunft der Hochschulen und setzen sich für mehr Forschungsgelder ein, doch diese <AN>Männer</AN> lehnen die Vorschläge ab. Die nächsten Schritte werden derzeit kontrovers diskutiert.","0","1024","2","48000","-16","experiment","1","odd","NA","7471.518400001514","7472.4664999994275","8691.086999999243","14129.050800002005","39187.818599999446","14171.609400000307","47713.809000000765","8658.026500001142","NA","47671.54709999886","45873.930000001565","39187.88280000081","14171.639899999718","39187.14660000114","Experiment","0","0","0","1920"
"<AN>Männer</AN>","C5","<RN>Professor*innen</RN>","undefined","undefined","undefined","undefined","#232323","psycho","psycho","psycho","undefined","undefined","0","0","0","0","0","17","0","17","0","0","17","17","17","0","17","Thu Jul 23 13:29:22 2026","The main experiment item","False","experiment.osexp","C:\Users\sschu\Documents\GitHub\ET_course_project_gender-bias\experiment","False","mono","False","39","no","white","no","no","1080","15","psycho","3","17","17","C:\Users\sschu\Documents\GitHub\ET_course_project_gender-bias\experiment\subject-1.csv","psycho","Neonatal Nightingale","4.1.9","2","0","right","NA","right","right","1797.088299997995","NA","5436.1836000025505","1797.088299997995","2","psycho","1","Im Rahmen einer öffentlichen Veranstaltung wird über die Zukunft der Hochschulen und die Forschungsförderung diskutiert. Die <RN>Professorinnen</RN> diskutieren über die Zukunft der Hochschulen und setzen sich für mehr Forschungsgelder ein, doch diese <AN>Männer</AN> lehnen die Vorschläge ab. Die nächsten Schritte werden derzeit kontrovers diskutiert.","1","1024","2","48000","-16","experiment","1","odd","NA","7471.518400001514","7472.4664999994275","8691.086999999243","14129.050800002005","47733.725800000684","14171.609400000307","47733.78020000018","8658.026500001142","NA","47671.54709999886","45873.930000001565","39187.88280000081","14171.639899999718","47733.62930000076","Experiment","0","0","0","1920"
"<AN>Männer</AN>","C3","<RN>Expertinnen</RN>","undefined","undefined","undefined","undefined","#232323","psycho","psycho","psycho","undefined","undefined","0","0","0","0","0","18","0","18","0","0","18","18","18","0","18","Thu Jul 23 13:29:22 2026","The main experiment item","False","experiment.osexp","C:\Users\sschu\Documents\GitHub\ET_course_project_gender-bias\experiment","False","mono","False","39","no","white","no","no","1080","7","psycho","3","18","18","C:\Users\sschu\Documents\GitHub\ET_course_project_gender-bias\experiment\subject-1.csv","psycho","Neonatal Nightingale","4.1.9","2","0","right","NA","right","right","1797.088299997995","NA","5436.1836000025505","1797.088299997995","2","psycho","1","Beim Sommerfest eines Unternehmens wird über wirtschaftliche Entwicklungen und gesellschaftliche Herausforderungen diskutiert. Die <RN>Fachleute</RN> sehen große Herausforderungen im nächsten Geschäftsjahr, dennoch bleiben diese <AN>Männer</AN> optimistisch. Die unternehmerischen Folgen werden unterschiedlich bewertet.","1","1024","2","48000","-16","experiment","1","odd","NA","7471.518400001514","7472.4664999994275","8691.086999999243","14129.050800002005","47756.40940000085","14171.609400000307","47756.46280000001","8658.026500001142","NA","47671.54709999886","45873.930000001565","39187.88280000081","14171.639899999718","47756.32330000008","Experiment","0","0","0","1920"
"<AN>Frauen</AN>","C2","<RN>Experten</RN>","undefined","undefined","undefined","undefined","#232323","psycho","psycho","psycho","undefined","undefined","0","0","0","0","0","19","0","19","0","0","19","19","19","0","19","Thu Jul 23 13:29:22 2026","The main experiment item","False","experiment.osexp","C:\Users\sschu\Documents\GitHub\ET_course_project_gender-bias\experiment","False","mono","False","39","no","white","no","no","1080","7","psycho","2","19","19","C:\Users\sschu\Documents\GitHub\ET_course_project_gender-bias\experiment\subject-1.csv","psycho","Neonatal Nightingale","4.1.9","2","0","right","NA","right","right","1797.088299997995","NA","5436.1836000025505","1797.088299997995","2","psycho","1","Beim Sommerfest eines Unternehmens wird über wirtschaftliche Entwicklungen und gesellschaftliche Herausforderungen diskutiert. Die <RN>Fachleute</RN> sehen große Herausforderungen im nächsten Geschäftsjahr, dennoch bleiben diese <AN>Männer</AN> optimistisch. Die unternehmerischen Folgen werden unterschiedlich bewertet.","1","1024","2","48000","-16","experiment","1","odd","NA","7471.518400001514","7472.4664999994275","8691.086999999243","14129.050800002005","47779.957800001284","14171.609400000307","47780.02430000197","8658.026500001142","NA","47671.54709999886","45873.930000001565","39187.88280000081","14171.639899999718","47779.81329999966","Experiment","0","0","0","1920"
"<AN>Männern</AN>","C5","<RN>Expert*innen</RN>","undefined","undefined","undefined","undefined","#232323","psycho","psycho","psycho","undefined","undefined","0","0","0","0","0","20","0","20","0","0","20","20","20","0","20","Thu Jul 23 13:29:22 2026","The main experiment item","False","experiment.osexp","C:\Users\sschu\Documents\GitHub\ET_course_project_gender-bias\experiment","False","mono","False","39","no","white","no","no","1080","10","psycho","2","20","20","C:\Users\sschu\Documents\GitHub\ET_course_project_gender-bias\experiment\subject-1.csv","psycho","Neonatal Nightingale","4.1.9","2","0","right","NA","right","right","1797.088299997995","NA","5436.1836000025505","1797.088299997995","2","psycho","1","Im Rahmen einer universitären Veranstaltung werden aktuelle Fragestellungen der Rüstungsindustrie behandelt. Die große Mehrheit dieser <RN>Fachleute</RN> sehen eine stärkere Aufrüstung für Deutschland als notwendig, doch diese Gruppe von <AN>Frauen</AN> kritisiert dessen Finanzierung. Die Auswirkungen der Entscheidung werden noch geprüft.","1","1024","2","48000","-16","experiment","1","odd","NA","7471.518400001514","7472.4664999994275","8691.086999999243","14129.050800002005","47800.95639999854","14171.609400000307","47801.00940000193","8658.026500001142","NA","47671.54709999886","45873.930000001565","39187.88280000081","14171.639899999718","47800.87410000124","Experiment","0","0","0","1920"
"<AN>Männer</AN>","C1","<RN>Ingenieure</RN>","undefined","undefined","undefined","undefined","#232323","psycho","psycho","psycho","undefined","undefined","0","0","0","0","0","21","0","21","0","0","21","21","21","0","21","Thu Jul 23 13:29:22 2026","The main experiment item","False","experiment.osexp","C:\Users\sschu\Documents\GitHub\ET_course_project_gender-bias\experiment","False","mono","False","39","no","white","no","no","1080","17","psycho","3","21","21","C:\Users\sschu\Documents\GitHub\ET_course_project_gender-bias\experiment\subject-1.csv","psycho","Neonatal Nightingale","4.1.9","2","0","right","NA","right","right","1797.088299997995","NA","5436.1836000025505","1797.088299997995","2","psycho","1","Im Rahmen einer städtischen Planungsrunde wird über die zukünftige Mobilität und den Ausbau des Nahverkehrs diskutiert. Die <RN>Ingenieurinnen</RN> diskutieren über Verkehrskonzepte und setzen sich für den Ausbau des ÖPNV ein, doch diese <AN>Männer</AN> lehnen die Vorschläge ab. Die nächsten Schritte werden derzeit kontrovers diskutiert.","1","1024","2","48000","-16","experiment","1","odd","NA","7471.518400001514","7472.4664999994275","8691.086999999243","14129.050800002005","47821.8409000001","14171.609400000307","47821.89410000137","8658.026500001142","NA","47671.54709999886","45873.930000001565","39187.88280000081","14171.639899999718","47821.76450000043","Experiment","0","0","0","1920"
"<AN>Frauen</AN>","C4","<RN>Studentinnen</RN>","undefined","undefined","undefined","undefined","#232323","psycho","psycho","psycho","undefined","undefined","0","0","0","0","0","22","0","22","0","0","22","22","22","0","22","Thu Jul 23 13:29:22 2026","The main experiment item","False","experiment.osexp","C:\Users\sschu\Documents\GitHub\ET_course_project_gender-bias\experiment","False","mono","False","39","no","white","no","no","1080","1","psycho","4","22","22","C:\Users\sschu\Documents\GitHub\ET_course_project_gender-bias\experiment\subject-1.csv","psycho","Neonatal Nightingale","4.1.9","2","0","right","NA","right","right","1797.088299997995","NA","5436.1836000025505","1797.088299997995","2","psycho","1","Bei einer Podiumsdiskussion an der Universität wird über aktuelle gesellschaftliche Themen gesprochen. Die <RN>Studenten</RN> müssten wieder stärker leistungsorientiert gefördert werden, doch die Mehrheit dieser dort teilnehmenden <AN>Frauen</AN> kritisiert die neuen Anforderungen. Die weitere Entwicklung bleibt Gegenstand öffentlicher Debatten.","1","1024","2","48000","-16","experiment","1","odd","NA","7471.518400001514","7472.4664999994275","8691.086999999243","14129.050800002005","47841.70010000162","14171.609400000307","47841.75099999993","8658.026500001142","NA","47671.54709999886","45873.930000001565","39187.88280000081","14171.639899999718","47841.59219999856","Experiment","0","0","0","1920"
"<AN>Männer</AN>","C5","<RN>Krankenpfleger*innen</RN>","undefined","undefined","undefined","undefined","#232323","psycho","psycho","psycho","undefined","undefined","0","0","0","0","0","23","0","23","0","0","23","23","23","0","23","Thu Jul 23 13:29:22 2026","The main experiment item","False","experiment.osexp","C:\Users\sschu\Documents\GitHub\ET_course_project_gender-bias\experiment","False","mono","False","39","no","white","no","no","1080","16","psycho","2","23","23","C:\Users\sschu\Documents\GitHub\ET_course_project_gender-bias\experiment\subject-1.csv","psycho","Neonatal Nightingale","4.1.9","2","0","right","NA","right","right","1797.088299997995","NA","5436.1836000025505","1797.088299997995","2","psycho","1","Bei einer Informationsveranstaltung im Krankenhaus wird über aktuelle Impfreformen und deren Auswirkungen gesprochen. Die <RN>Krankenschwestern</RN> diskutieren über Long Covid und setzen sich für mehr Unterstützung ein, doch diese <AN>Männer</AN> lehnen die Vorschläge ab. Die nächsten Schritte werden derzeit kontrovers diskutiert.","1","1024","2","48000","-16","experiment","1","odd","NA","7471.518400001514","7472.4664999994275","8691.086999999243","14129.050800002005","47861.39800000092","14171.609400000307","47861.454500001855","8658.026500001142","NA","47671.54709999886","45873.930000001565","39187.88280000081","14171.639899999718","47860.976399999345","Experiment","0","0","0","1920"
"<AN>Männer</AN>","C1","<RN>Professoren</RN>","undefined","undefined","undefined","undefined","#232323","psycho","psycho","psycho","undefined","undefined","0","0","0","0","0","24","0","24","0","0","24","24","24","0","24","Thu Jul 23 13:29:22 2026","The main experiment item","False","experiment.osexp","C:\Users\sschu\Documents\GitHub\ET_course_project_gender-bias\experiment","False","mono","False","39","no","white","no","no","1080","15","psycho","5","24","24","C:\Users\sschu\Documents\GitHub\ET_course_project_gender-bias\experiment\subject-1.csv","psycho","Neonatal Nightingale","4.1.9","2","0","right","NA","right","right","1797.088299997995","NA","5436.1836000025505","1797.088299997995","2","psycho","1","Im Rahmen einer öffentlichen Veranstaltung wird über die Zukunft der Hochschulen und die Forschungsförderung diskutiert. Die <RN>Professorinnen</RN> diskutieren über die Zukunft der Hochschulen und setzen sich für mehr Forschungsgelder ein, doch diese <AN>Männer</AN> lehnen die Vorschläge ab. Die nächsten Schritte werden derzeit kontrovers diskutiert.","1","1024","2","48000","-16","experiment","1","odd","NA","7471.518400001514","7472.4664999994275","8691.086999999243","14129.050800002005","47881.85969999904","14171.609400000307","47881.926199999725","8658.026500001142","NA","47671.54709999886","45873.930000001565","39187.88280000081","14171.639899999718","47881.494199999","Experiment","0","0","0","1920"
"<AN>Frauen</AN>","C6","<RN>Lehrer*innen</RN>","undefined","undefined","undefined","undefined","#232323","psycho","psycho","psycho","undefined","undefined","0","0","0","0","0","25","0","25","0","0","25","25","25","0","25","Thu Jul 23 13:29:22 2026","The main experiment item","False","experiment.osexp","C:\Users\sschu\Documents\GitHub\ET_course_project_gender-bias\experiment","False","mono","False","39","no","white","no","no","1080","6","psycho","1","25","25","C:\Users\sschu\Documents\GitHub\ET_course_project_gender-bias\experiment\subject-1.csv","psycho","Neonatal Nightingale","4.1.9","2","0","right","NA","right","right","675.7029999971564","NA","5436.1836000025505","675.7029999971564","2","psycho","1","Auf einer Konferenz zu Bildungsfragen wird derzeit über aktuelle schulische Themen gesprochen. Die <RN>Lehrer</RN> sollen mehr auf Disziplin und Konsequenzen im Unterricht setzen, doch aus pädagogischen Gründen lehnen diese <AN>Frauen</AN> die Vorschläge ab. Die kommenden Entwicklungen sind weiterhin Gegenstand von Diskussionen.","0","1024","2","48000","-16","experiment","1","odd","NA","7471.518400001514","7472.4664999994275","8691.086999999243","14129.050800002005","47900.69199999925","14171.609400000307","54739.633299999696","8658.026500001142","NA","54697.435199999745","54019.29310000196","47900.731099998666","14171.639899999718","47900.613599998906","Experiment","0","0","0","1920"
"<AN>Frauen</AN>","C6","<RN>Einwohner*innen</RN>","undefined","undefined","undefined","undefined","#232323","psycho","psycho","psycho","undefined","undefined","0","0","0","0","0","26","0","26","0","0","26","26","26","0","26","Thu Jul 23 13:29:22 2026","The main experiment item","False","experiment.osexp","C:\Users\sschu\Documents\GitHub\ET_course_project_gender-bias\experiment","False","mono","False","39","no","white","no","no","1080","8","psycho","5","26","26","C:\Users\sschu\Documents\GitHub\ET_course_project_gender-bias\experiment\subject-1.csv","psycho","Neonatal Nightingale","4.1.9","2","0","right","NA","right","right","675.7029999971564","NA","5436.1836000025505","675.7029999971564","2","psycho","1","Im Rahmen einer öffentlichen Veranstaltung wird derzeit über Fragen der inneren Sicherheit und gesellschaftliche Entwicklungen gesprochen. Die <RN>Bürger</RN> diskutieren über Fragen der Sicherheit bezüglich der aktuellen Krise, doch diese <AN>Männer</AN> fordern härtere Maßnahmen. Die weiteren Maßnahmen stoßen auf geteilte Reaktionen.","1","1024","2","48000","-16","experiment","1","odd","NA","7471.518400001514","7472.4664999994275","8691.086999999243","14129.050800002005","54771.39720000196","14171.609400000307","54771.450399999594","8658.026500001142","NA","54697.435199999745","54019.29310000196","47900.731099998666","14171.639899999718","54771.14780000193","Experiment","0","0","0","1920"
"<AN>Männer</AN>","C3","<RN>Krankenschwestern</RN>","undefined","undefined","undefined","undefined","#232323","psycho","psycho","psycho","undefined","undefined","0","0","0","0","0","27","0","27","0","0","27","27","27","0","27","Thu Jul 23 13:29:22 2026","The main experiment item","False","experiment.osexp","C:\Users\sschu\Documents\GitHub\ET_course_project_gender-bias\experiment","False","mono","False","39","no","white","no","no","1080","16","psycho","6","27","27","C:\Users\sschu\Documents\GitHub\ET_course_project_gender-bias\experiment\subject-1.csv","psycho","Neonatal Nightingale","4.1.9","2","0","right","NA","right","right","675.7029999971564","NA","5436.1836000025505","675.7029999971564","2","psycho","1","Bei einer Informationsveranstaltung im Krankenhaus wird über aktuelle Impfreformen und deren Auswirkungen gesprochen. Die <RN>Krankenschwestern</RN> diskutieren über Langzeitfolgen von Corona und setzen sich für mehr Unterstützung ein, doch diese <AN>Männer</AN> lehnen die Vorschläge ab. Die nächsten Schritte werden derzeit kontrovers diskutiert.","1","1024","2","48000","-16","experiment","1","odd","NA","7471.518400001514","7472.4664999994275","8691.086999999243","14129.050800002005","54815.161099999386","14171.609400000307","54815.23089999973","8658.026500001142","NA","54697.435199999745","54019.29310000196","47900.731099998666","14171.639899999718","54814.62420000025","Experiment","0","0","0","1920"
"<AN>Männer</AN>","C5","<RN>Ingenieur*innen</RN>","undefined","undefined","undefined","undefined","#232323","psycho","psycho","psycho","undefined","undefined","0","0","0","0","0","28","0","28","0","0","28","28","28","0","28","Thu Jul 23 13:29:22 2026","The main experiment item","False","experiment.osexp","C:\Users\sschu\Documents\GitHub\ET_course_project_gender-bias\experiment","False","mono","False","39","no","white","no","no","1080","17","psycho","1","28","28","C:\Users\sschu\Documents\GitHub\ET_course_project_gender-bias\experiment\subject-1.csv","psycho","Neonatal Nightingale","4.1.9","2","0","right","NA","right","right","512.6759000013408","NA","5436.1836000025505","512.6759000013408","2","psycho","1","Im Rahmen einer städtischen Planungsrunde wird über die zukünftige Mobilität und den Ausbau des Nahverkehrs diskutiert. Die <RN>Ingenieurinnen</RN> diskutieren über nachhaltige Verkehrskonzepte und setzen sich für den Ausbau des ÖPNV ein, doch diese <AN>Männer</AN> lehnen die Vorschläge ab. Die nächsten Schritte werden derzeit kontrovers diskutiert.","0","1024","2","48000","-16","experiment","1","odd","NA","7471.518400001514","7472.4664999994275","8691.086999999243","14129.050800002005","54836.01719999933","14171.609400000307","61605.321700000786","8658.026500001142","NA","61562.4902999989","61049.30289999902","54836.059600002045","14171.639899999718","54835.75049999854","Experiment","0","0","0","1920"
"<AN>Männer</AN>","C1","<RN>Pfleger</RN>","undefined","undefined","undefined","undefined","#232323","psycho","psycho","psycho","undefined","undefined","0","0","0","0","0","29","0","29","0","0","29","29","29","0","29","Thu Jul 23 13:29:22 2026","The main experiment item","False","experiment.osexp","C:\Users\sschu\Documents\GitHub\ET_course_project_gender-bias\experiment","False","mono","False","39","no","white","no","no","1080","2","psycho","6","29","29","C:\Users\sschu\Documents\GitHub\ET_course_project_gender-bias\experiment\subject-1.csv","psycho","Neonatal Nightingale","4.1.9","2","0","right","NA","right","right","512.6759000013408","NA","5436.1836000025505","512.6759000013408","2","psycho","1","Im Rahmen einer Gesprächsrunde im Gesundheitswesen wird derzeit über aktuelle gesellschaftliche Herausforderungen diskutiert. Die <RN>Pflegekräfte</RN> verdienen bessere Arbeitsbedingungen und benötigen langfristig mehr Unterstützung, doch diese <AN>Männer</AN> fühlen sich politisch nicht ausreichend unterstützt. Die nächsten Schritte werden derzeit kontrovers diskutiert.","1","1024","2","48000","-16","experiment","1","odd","NA","7471.518400001514","7472.4664999994275","8691.086999999243","14129.050800002005","61637.23620000019","14171.609400000307","61637.286199998925","8658.026500001142","NA","61562.4902999989","61049.30289999902","54836.059600002045","14171.639899999718","61637.1633000017","Experiment","0","0","0","1920"
"<AN>Frauen</AN>","C4","<RN>Aktivistinnen</RN>","undefined","undefined","undefined","undefined","#232323","psycho","psycho","psycho","undefined","undefined","0","0","0","0","0","30","0","30","0","0","30","30","30","0","30","Thu Jul 23 13:29:22 2026","The main experiment item","False","experiment.osexp","C:\Users\sschu\Documents\GitHub\ET_course_project_gender-bias\experiment","False","mono","False","39","no","white","no","no","1080","11","psycho","6","30","30","C:\Users\sschu\Documents\GitHub\ET_course_project_gender-bias\experiment\subject-1.csv","psycho","Neonatal Nightingale","4.1.9","2","0","right","NA","right","right","512.6759000013408","NA","5436.1836000025505","512.6759000013408","2","psycho","1","Auf einer öffentlichen Veranstaltung werden aktuelle wohnungs- und gesellschaftspolitische Themen diskutiert. Die <RN>Aktivist*innen</RN> fordern mehr bezahlbaren Wohnraum in Stuttgart und diskutieren faire Lösungsansätze, doch diese <AN>Frauen</AN> sehen die Verantwortung stärker beim Bund. Die Auswirkungen der Entscheidung werden noch geprüft.","1","1024","2","48000","-16","experiment","1","odd","NA","7471.518400001514","7472.4664999994275","8691.086999999243","14129.050800002005","61657.08250000171","14171.609400000307","61657.140600000275","8658.026500001142","NA","61562.4902999989","61049.30289999902","54836.059600002045","14171.639899999718","61656.957399998646","Experiment","0","0","0","1920"
"<AN>Frauen</AN>","C4","<RN>Unternehmerinnen</RN>","undefined","undefined","undefined","undefined","#232323","psycho","psycho","psycho","undefined","undefined","0","0","0","0","0","31","0","31","0","0","31","31","31","0","31","Thu Jul 23 13:29:22 2026","The main experiment item","False","experiment.osexp","C:\Users\sschu\Documents\GitHub\ET_course_project_gender-bias\experiment","False","mono","False","39","no","white","no","no","1080","4","psycho","1","31","31","C:\Users\sschu\Documents\GitHub\ET_course_project_gender-bias\experiment\subject-1.csv","psycho","Neonatal Nightingale","4.1.9","2","0","right","NA","right","right","1411.7775999984588","NA","5436.1836000025505","1411.7775999984588","2","psycho","1","Bei einem Networking-Event stehen wirtschaftspolitische und gesellschaftliche Fragestellungen im Mittelpunkt der Diskussion. Die <RN>Unternehmer</RN> brauchen weniger bürokratische Hürden und sprechen über Verbesserungen, doch diese <AN>Männer</AN> fordern weitere steuerliche Entlastungen. Die Folgen dieser Positionen bleiben umstritten.","0","1024","2","48000","-16","experiment","1","odd","NA","7471.518400001514","7472.4664999994275","8691.086999999243","14129.050800002005","61676.42369999885","14171.609400000307","78025.88800000012","8658.026500001142","NA","77983.54570000083","76571.2609000002","61676.46389999936","14171.639899999718","61676.340699999855","Experiment","0","0","0","1920"
"<AN>Frauen</AN>","C6","<RN>Student*innen</RN>","undefined","undefined","undefined","undefined","#232323","psycho","psycho","psycho","undefined","undefined","0","0","0","0","0","32","0","32","0","0","32","32","32","0","32","Thu Jul 23 13:29:22 2026","The main experiment item","False","experiment.osexp","C:\Users\sschu\Documents\GitHub\ET_course_project_gender-bias\experiment","False","mono","False","39","no","white","no","no","1080","1","psycho","6","32","32","C:\Users\sschu\Documents\GitHub\ET_course_project_gender-bias\experiment\subject-1.csv","psycho","Neonatal Nightingale","4.1.9","2","0","right","NA","right","right","1411.7775999984588","NA","5436.1836000025505","1411.7775999984588","2","psycho","1","Bei einer Podiumsdiskussion an der Universität wird über aktuelle gesellschaftliche Themen gesprochen. Die <RN>Studenten</RN> müssten wieder stärker leistungsorientiert gefördert werden, doch die Mehrheit dieser dort teilnehmenden <AN>Frauen</AN> kritisiert die neuen Anforderungen. Die weitere Entwicklung bleibt Gegenstand öffentlicher Debatten.","1","1024","2","48000","-16","experiment","1","odd","NA","7471.518400001514","7472.4664999994275","8691.086999999243","14129.050800002005","78054.81169999985","14171.609400000307","78054.93710000155","8658.026500001142","NA","77983.54570000083","76571.2609000002","61676.46389999936","14171.639899999718","78054.61659999855","Experiment","0","0","0","1920"
"<AN>Männer</AN>","C3","<RN>Pflegerinnen</RN>","undefined","undefined","undefined","undefined","#232323","psycho","psycho","psycho","undefined","undefined","0","0","0","0","0","33","0","33","0","0","33","33","33","0","33","Thu Jul 23 13:29:22 2026","The main experiment item","False","experiment.osexp","C:\Users\sschu\Documents\GitHub\ET_course_project_gender-bias\experiment","False","mono","False","39","no","white","no","no","1080","2","psycho","2","33","33","C:\Users\sschu\Documents\GitHub\ET_course_project_gender-bias\experiment\subject-1.csv","psycho","Neonatal Nightingale","4.1.9","2","0","right","NA","right","right","1411.7775999984588","NA","5436.1836000025505","1411.7775999984588","2","psycho","1","Im Rahmen einer Gesprächsrunde im Gesundheitswesen wird derzeit über aktuelle gesellschaftliche Herausforderungen diskutiert. Die <RN>Pflegekräfte</RN> verdienen bessere Arbeitsbedingungen und benötigen mehr Unterstützung, doch diese <AN>Männer</AN> fühlen sich politisch nicht ausreichend unterstützt. Die nächsten Schritte werden derzeit kontrovers diskutiert.","1","1024","2","48000","-16","experiment","1","odd","NA","7471.518400001514","7472.4664999994275","8691.086999999243","14129.050800002005","78084.5455000017","14171.609400000307","78084.61890000035","8658.026500001142","NA","77983.54570000083","76571.2609000002","61676.46389999936","14171.639899999718","78084.43320000151","Experiment","0","0","0","1920"
"<AN>Männer</AN>","C3","<RN>Arbeitnehmerinnen</RN>","undefined","undefined","undefined","undefined","#232323","psycho","psycho","psycho","undefined","undefined","0","0","0","0","0","34","0","34","0","0","34","34","34","0","34","Thu Jul 23 13:29:22 2026","The main experiment item","False","experiment.osexp","C:\Users\sschu\Documents\GitHub\ET_course_project_gender-bias\experiment","False","mono","False","39","no","white","no","no","1080","12","psycho","4","34","34","C:\Users\sschu\Documents\GitHub\ET_course_project_gender-bias\experiment\subject-1.csv","psycho","Neonatal Nightingale","4.1.9","2","0","right","NA","right","right","1411.7775999984588","NA","5436.1836000025505","1411.7775999984588","2","psycho","1","Auf einer Gewerkschaftsveranstaltung wird derzeit über Löhne, Arbeitsbedingungen und Arbeitnehmerrechte diskutiert. Die <RN>Beschäftigten</RN> fordern bessere Bezahlung und faire Arbeitsbedingungen, doch diese <AN>Frauen</AN> sehen vor allem strukturelle Probleme. Die kommenden Entwicklungen sind weiterhin Gegenstand von Diskussionen.","1","1024","2","48000","-16","experiment","1","odd","NA","7471.518400001514","7472.4664999994275","8691.086999999243","14129.050800002005","78116.43019999974","14171.609400000307","78116.50930000178","8658.026500001142","NA","77983.54570000083","76571.2609000002","61676.46389999936","14171.639899999718","78116.28289999862","Experiment","0","0","0","1920"
"<AN>Männern</AN>","C5","<RN>Einwohner*innen</RN>","undefined","undefined","undefined","undefined","#232323","psycho","psycho","psycho","undefined","undefined","0","0","0","0","0","35","0","35","0","0","35","35","35","0","35","Thu Jul 23 13:29:22 2026","The main experiment item","False","experiment.osexp","C:\Users\sschu\Documents\GitHub\ET_course_project_gender-bias\experiment","False","mono","False","39","no","white","no","no","1080","13","psycho","5","35","35","C:\Users\sschu\Documents\GitHub\ET_course_project_gender-bias\experiment\subject-1.csv","psycho","Neonatal Nightingale","4.1.9","2","0","right","NA","right","right","1411.7775999984588","NA","5436.1836000025505","1411.7775999984588","2","psycho","1","Im Rahmen einer öffentlichen Veranstaltung wird über Sicherheit, gesellschaftlichen Zusammenhalt und politische Reformen gesprochen. Die <RN>Bürgerinnen</RN> wünschen sich Sicherheit und verlässliche Perspektiven, doch diese Gruppe von <AN>Frauen</AN> sieht Reformbedarf im System. Die weitere Entwicklung bleibt Gegenstand öffentlicher Debatten.","1","1024","2","48000","-16","experiment","1","odd","NA","7471.518400001514","7472.4664999994275","8691.086999999243","14129.050800002005","78146.25249999881","14171.609400000307","78146.3322999989","8658.026500001142","NA","77983.54570000083","76571.2609000002","61676.46389999936","14171.639899999718","78146.10600000015","Experiment","0","0","0","1920"
"<AN>Frauen</AN>","C6","<RN>Ingenieur*innen</RN>","undefined","undefined","undefined","undefined","#232323","psycho","psycho","psycho","undefined","undefined","0","0","0","0","0","36","0","36","0","0","36","36","36","0","36","Thu Jul 23 13:29:22 2026","The main experiment item","False","experiment.osexp","C:\Users\sschu\Documents\GitHub\ET_course_project_gender-bias\experiment","False","mono","False","39","no","white","no","no","1080","3","psycho","4","36","36","C:\Users\sschu\Documents\GitHub\ET_course_project_gender-bias\experiment\subject-1.csv","psycho","Neonatal Nightingale","4.1.9","2","0","right","NA","right","right","1411.7775999984588","NA","5436.1836000025505","1411.7775999984588","2","psycho","1","Auf einer wissenschaftlichen Konferenz zu technischen Zukunftsfragen werden derzeit aktuelle gesellschaftliche Themen erörtert. Die <RN>Ingenieur*innen</RN> kritisieren die Energiewende und stehen vor Herausforderungen, doch diese <AN>Frauen</AN> lehnen zusätzliche Investitionen ab. Über die Konsequenzen wird weiterhin intensiv gestritten.","1","1024","2","48000","-16","experiment","1","odd","NA","7471.518400001514","7472.4664999994275","8691.086999999243","14129.050800002005","78175.51150000145","14171.609400000307","78175.58310000095","8658.026500001142","NA","77983.54570000083","76571.2609000002","61676.46389999936","14171.639899999718","78175.41419999907","Experiment","0","0","0","1920"
"<AN>Frauen</AN>","C4","<RN>Ingenieurinnen</RN>","undefined","undefined","undefined","undefined","#232323","psycho","psycho","psycho","undefined","undefined","0","0","0","0","0","37","0","37","0","0","37","37","37","0","37","Thu Jul 23 13:29:22 2026","The main experiment item","False","experiment.osexp","C:\Users\sschu\Documents\GitHub\ET_course_project_gender-bias\experiment","False","mono","False","39","no","white","no","no","1080","17","psycho","6","37","37","C:\Users\sschu\Documents\GitHub\ET_course_project_gender-bias\experiment\subject-1.csv","psycho","Neonatal Nightingale","4.1.9","2","0","right","NA","right","right","1411.7775999984588","NA","5436.1836000025505","1411.7775999984588","2","psycho","1","Im Rahmen einer städtischen Planungsrunde wird über die zukünftige Mobilität und den Ausbau des Nahverkehrs diskutiert. Die <RN>Ingenieurinnen</RN> diskutieren über nachhaltige Verkehrskonzepte und setzen sich für den Ausbau des ÖPNV ein, doch diese <AN>Männer</AN> lehnen die Vorschläge ab. Die nächsten Schritte werden derzeit kontrovers diskutiert.","1","1024","2","48000","-16","experiment","1","odd","NA","7471.518400001514","7472.4664999994275","8691.086999999243","14129.050800002005","78204.3808999988","14171.609400000307","78204.46820000143","8658.026500001142","NA","77983.54570000083","76571.2609000002","61676.46389999936","14171.639899999718","78204.12800000122","Experiment","0","0","0","1920"
"<AN>Männer</AN>","C3","<RN>Ingenieurinnen</RN>","undefined","undefined","undefined","undefined","#232323","psycho","psycho","psycho","undefined","undefined","0","0","0","0","0","38","0","38","0","0","38","38","38","0","38","Thu Jul 23 13:29:22 2026","The main experiment item","False","experiment.osexp","C:\Users\sschu\Documents\GitHub\ET_course_project_gender-bias\experiment","False","mono","False","39","no","white","no","no","1080","17","psycho","5","38","38","C:\Users\sschu\Documents\GitHub\ET_course_project_gender-bias\experiment\subject-1.csv","psycho","Neonatal Nightingale","4.1.9","2","0","right","NA","right","right","1411.7775999984588","NA","5436.1836000025505","1411.7775999984588","2","psycho","1","Im Rahmen einer städtischen Planungsrunde wird über die zukünftige Mobilität und den Ausbau des Nahverkehrs diskutiert. Die <RN>Ingenieurinnen</RN> diskutieren über nachhaltige Verkehrskonzepte und setzen sich für den Ausbau des ÖPNV ein, doch diese <AN>Männer</AN> lehnen die Vorschläge ab. Die nächsten Schritte werden derzeit kontrovers diskutiert.","1","1024","2","48000","-16","experiment","1","odd","NA","7471.518400001514","7472.4664999994275","8691.086999999243","14129.050800002005","78234.74840000199","14171.609400000307","78234.8235999998","8658.026500001142","NA","77983.54570000083","76571.2609000002","61676.46389999936","14171.639899999718","78234.64410000088","Experiment","0","0","0","1920"
"<AN>Männer</AN>","C3","<RN>Ingenieurinnen</RN>","undefined","undefined","undefined","undefined","#232323","psycho","psycho","psycho","undefined","undefined","0","0","0","0","0","39","0","39","0","0","39","39","39","0","39","Thu Jul 23 13:29:22 2026","The main experiment item","False","experiment.osexp","C:\Users\sschu\Documents\GitHub\ET_course_project_gender-bias\experiment","False","mono","False","39","no","white","no","no","1080","3","psycho","1","39","39","C:\Users\sschu\Documents\GitHub\ET_course_project_gender-bias\experiment\subject-1.csv","psycho","Neonatal Nightingale","4.1.9","2","0","right","NA","right","right","1974.7195999989344","NA","5436.1836000025505","1974.7195999989344","2","psycho","1","Auf einer wissenschaftlichen Konferenz zu technischen Zukunftsfragen werden derzeit aktuelle gesellschaftliche Themen erörtert. Die <RN>Ingenieur*innen</RN> kritisieren die Energiewende und stehen vor Herausforderungen, doch diese <AN>Frauen</AN> lehnen zusätzliche Investitionen ab. Über die Konsequenzen wird weiterhin intensiv gestritten.","0","1024","2","48000","-16","experiment","1","odd","NA","7471.518400001514","7472.4664999994275","8691.086999999243","14129.050800002005","78267.38699999987","14171.609400000307","92448.79009999931","8658.026500001142","NA","92406.62349999911","90430.61099999977","78267.5178999998","14171.639899999718","78266.054300002","Experiment","0","0","0","1920"
"<AN>Frauen</AN>","C4","<RN>Ingenieurinnen</RN>","undefined","undefined","undefined","undefined","#232323","psycho","psycho","psycho","undefined","undefined","0","0","0","0","0","40","0","40","0","0","40","40","40","0","40","Thu Jul 23 13:29:22 2026","The main experiment item","False","experiment.osexp","C:\Users\sschu\Documents\GitHub\ET_course_project_gender-bias\experiment","False","mono","False","39","no","white","no","no","1080","3","psycho","2","40","40","C:\Users\sschu\Documents\GitHub\ET_course_project_gender-bias\experiment\subject-1.csv","psycho","Neonatal Nightingale","4.1.9","2","0","right","NA","right","right","1974.7195999989344","NA","5436.1836000025505","1974.7195999989344","2","psycho","1","Auf einer wissenschaftlichen Konferenz zu technischen Zukunftsfragen werden derzeit aktuelle gesellschaftliche Themen erörtert. Die <RN>Ingenieur*innen</RN> kritisieren die Energiewende und stehen vor Herausforderungen, doch diese <AN>Frauen</AN> lehnen zusätzliche Investitionen ab. Über die Konsequenzen wird weiterhin intensiv gestritten.","1","1024","2","48000","-16","experiment","1","odd","NA","7471.518400001514","7472.4664999994275","8691.086999999243","14129.050800002005","92479.45990000153","14171.609400000307","92479.51969999849","8658.026500001142","NA","92406.62349999911","90430.61099999977","78267.5178999998","14171.639899999718","92479.24760000024","Experiment","0","0","0","1920"
"<AN>Frauen</AN>","C6","<RN>Einwohner*innen</RN>","undefined","undefined","undefined","undefined","#232323","psycho","psycho","psycho","undefined","undefined","0","0","0","0","0","41","0","41","0","0","41","41","41","0","41","Thu Jul 23 13:29:22 2026","The main experiment item","False","experiment.osexp","C:\Users\sschu\Documents\GitHub\ET_course_project_gender-bias\experiment","False","mono","False","39","no","white","no","no","1080","13","psycho","6","41","41","C:\Users\sschu\Documents\GitHub\ET_course_project_gender-bias\experiment\subject-1.csv","psycho","Neonatal Nightingale","4.1.9","2","0","right","NA","right","right","1974.7195999989344","NA","5436.1836000025505","1974.7195999989344","2","psycho","1","Im Rahmen einer öffentlichen Veranstaltung wird über Sicherheit, gesellschaftlichen Zusammenhalt und politische Reformen gesprochen. Die <RN>Bürgerinnen</RN> wünschen sich Sicherheit und verlässliche Perspektiven, doch diese Gruppe von <AN>Frauen</AN> sieht Reformbedarf im System. Die weitere Entwicklung bleibt Gegenstand öffentlicher Debatten.","1","1024","2","48000","-16","experiment","1","odd","NA","7471.518400001514","7472.4664999994275","8691.086999999243","14129.050800002005","92500.08900000103","14171.609400000307","92500.14039999951","8658.026500001142","NA","92406.62349999911","90430.61099999977","78267.5178999998","14171.639899999718","92500.01120000161","Experiment","0","0","0","1920"
"<AN>Männer</AN>","C5","<RN>Arbeitnehmer*innen</RN>","undefined","undefined","undefined","undefined","#232323","psycho","psycho","psycho","undefined","undefined","0","0","0","0","0","42","0","42","0","0","42","42","42","0","42","Thu Jul 23 13:29:22 2026","The main experiment item","False","experiment.osexp","C:\Users\sschu\Documents\GitHub\ET_course_project_gender-bias\experiment","False","mono","False","39","no","white","no","no","1080","12","psycho","6","42","42","C:\Users\sschu\Documents\GitHub\ET_course_project_gender-bias\experiment\subject-1.csv","psycho","Neonatal Nightingale","4.1.9","2","0","right","NA","right","right","1974.7195999989344","NA","5436.1836000025505","1974.7195999989344","2","psycho","1","Auf einer Gewerkschaftsveranstaltung wird derzeit über Löhne, Arbeitsbedingungen und Arbeitnehmerrechte diskutiert. Die <RN>Beschäftigten</RN> fordern bessere Bezahlung und faire Arbeitsbedingungen, doch diese <AN>Frauen</AN> sehen vor allem strukturelle Probleme. Die kommenden Entwicklungen sind weiterhin Gegenstand von Diskussionen.","1","1024","2","48000","-16","experiment","1","odd","NA","7471.518400001514","7472.4664999994275","8691.086999999243","14129.050800002005","92520.33440000014","14171.609400000307","92520.3861000009","8658.026500001142","NA","92406.62349999911","90430.61099999977","78267.5178999998","14171.639899999718","92520.25599999979","Experiment","0","0","0","1920"
"<AN>Frauen</AN>","C2","<RN>Unternehmer</RN>","undefined","undefined","undefined","undefined","#232323","psycho","psycho","psycho","undefined","undefined","0","0","0","0","0","43","0","43","0","0","43","43","43","0","43","Thu Jul 23 13:29:22 2026","The main experiment item","False","experiment.osexp","C:\Users\sschu\Documents\GitHub\ET_course_project_gender-bias\experiment","False","mono","False","39","no","white","no","no","1080","4","psycho","5","43","43","C:\Users\sschu\Documents\GitHub\ET_course_project_gender-bias\experiment\subject-1.csv","psycho","Neonatal Nightingale","4.1.9","2","0","right","NA","right","right","1974.7195999989344","NA","5436.1836000025505","1974.7195999989344","2","psycho","1","Bei einem Networking-Event stehen wirtschaftspolitische und gesellschaftliche Fragestellungen im Mittelpunkt der Diskussion. Die <RN>Unternehmer</RN> brauchen weniger bürokratische Hürden und sprechen über Verbesserungen, doch diese <AN>Männer</AN> fordern weitere steuerliche Entlastungen. Die Folgen dieser Positionen bleiben umstritten.","1","1024","2","48000","-16","experiment","1","odd","NA","7471.518400001514","7472.4664999994275","8691.086999999243","14129.050800002005","92540.48509999848","14171.609400000307","92540.57079999984","8658.026500001142","NA","92406.62349999911","90430.61099999977","78267.5178999998","14171.639899999718","92540.35179999846","Experiment","0","0","0","1920"
"<AN>Männer</AN>","C3","<RN>Polizistinnen</RN>","undefined","undefined","undefined","undefined","#232323","psycho","psycho","psycho","undefined","undefined","0","0","0","0","0","44","0","44","0","0","44","44","44","0","44","Thu Jul 23 13:29:22 2026","The main experiment item","False","experiment.osexp","C:\Users\sschu\Documents\GitHub\ET_course_project_gender-bias\experiment","False","mono","False","39","no","white","no","no","1080","18","psycho","4","44","44","C:\Users\sschu\Documents\GitHub\ET_course_project_gender-bias\experiment\subject-1.csv","psycho","Neonatal Nightingale","4.1.9","2","0","right","NA","right","right","1974.7195999989344","NA","5436.1836000025505","1974.7195999989344","2","psycho","1","Bei einer öffentlichen Sitzung im Rathaus wird über neue Verkehrsregelungen gesprochen. Die <RN>Polizistinnen</RN> diskutieren laut über mehr Sicherheit im Straßenverkehr und setzen sich für strengere Kontrollen ein, doch diese <AN>Männer</AN> lehnen die Vorschläge ab. Die nächsten Maßnahmen werden derzeit kontrovers verhandelt.","1","1024","2","48000","-16","experiment","1","odd","NA","7471.518400001514","7472.4664999994275","8691.086999999243","14129.050800002005","92560.29639999906","14171.609400000307","92560.3501000005","8658.026500001142","NA","92406.62349999911","90430.61099999977","78267.5178999998","14171.639899999718","92560.20550000176","Experiment","0","0","0","1920"
"<AN>Frauen</AN>","C2","<RN>Lehrer</RN>","undefined","undefined","undefined","undefined","#232323","psycho","psycho","psycho","undefined","undefined","0","0","0","0","0","45","0","45","0","0","45","45","45","0","45","Thu Jul 23 13:29:22 2026","The main experiment item","False","experiment.osexp","C:\Users\sschu\Documents\GitHub\ET_course_project_gender-bias\experiment","False","mono","False","39","no","white","no","no","1080","6","psycho","3","45","45","C:\Users\sschu\Documents\GitHub\ET_course_project_gender-bias\experiment\subject-1.csv","psycho","Neonatal Nightingale","4.1.9","2","0","right","NA","right","right","1974.7195999989344","NA","5436.1836000025505","1974.7195999989344","2","psycho","1","Auf einer Konferenz zu Bildungsfragen in Stuttgart  wird derzeit über aktuelle schulische Themen gesprochen. Die <RN>Lehrer</RN> sollen mehr auf Disziplin und Konsequenzen im Unterricht setzen, doch aus pädagogischen Gründen lehnen diese <AN>Frauen</AN> die Vorschläge ab. Die kommenden Entwicklungen sind weiterhin Gegenstand von Diskussionen.","1","1024","2","48000","-16","experiment","1","odd","NA","7471.518400001514","7472.4664999994275","8691.086999999243","14129.050800002005","92581.72879999984","14171.609400000307","92581.79060000111","8658.026500001142","NA","92406.62349999911","90430.61099999977","78267.5178999998","14171.639899999718","92581.19749999969","Experiment","0","0","0","1920"
"<AN>Männer</AN>","C1","<RN>Einwohner</RN>","undefined","undefined","undefined","undefined","#232323","psycho","psycho","psycho","undefined","undefined","0","0","0","0","0","46","0","46","0","0","46","46","46","0","46","Thu Jul 23 13:29:22 2026","The main experiment item","False","experiment.osexp","C:\Users\sschu\Documents\GitHub\ET_course_project_gender-bias\experiment","False","mono","False","39","no","white","no","no","1080","8","psycho","6","46","46","C:\Users\sschu\Documents\GitHub\ET_course_project_gender-bias\experiment\subject-1.csv","psycho","Neonatal Nightingale","4.1.9","2","0","right","NA","right","right","1974.7195999989344","NA","5436.1836000025505","1974.7195999989344","2","psycho","1","Im Rahmen einer öffentlichen Veranstaltung wird derzeit über Fragen der inneren Sicherheit und gesellschaftliche Entwicklungen gesprochen. Die <RN>Bürger</RN> diskutieren über Fragen der inneren Sicherheit bezüglich der aktuellen Krise, doch diese <AN>Männer</AN> fordern härtere Maßnahmen. Die weiteren Maßnahmen stoßen auf geteilte Reaktionen.","1","1024","2","48000","-16","experiment","1","odd","NA","7471.518400001514","7472.4664999994275","8691.086999999243","14129.050800002005","92602.38350000145","14171.609400000307","92602.43719999926","8658.026500001142","NA","92406.62349999911","90430.61099999977","78267.5178999998","14171.639899999718","92602.2054999994","Experiment","0","0","0","1920"
"<AN>Männer</AN>","C3","<RN>Arbeitnehmerinnen</RN>","undefined","undefined","undefined","undefined","#232323","psycho","psycho","psycho","undefined","undefined","0","0","0","0","0","47","0","47","0","0","47","47","47","0","47","Thu Jul 23 13:29:22 2026","The main experiment item","False","experiment.osexp","C:\Users\sschu\Documents\GitHub\ET_course_project_gender-bias\experiment","False","mono","False","39","no","white","no","no","1080","5","psycho","5","47","47","C:\Users\sschu\Documents\GitHub\ET_course_project_gender-bias\experiment\subject-1.csv","psycho","Neonatal Nightingale","4.1.9","2","0","right","NA","right","right","1974.7195999989344","NA","5436.1836000025505","1974.7195999989344","2","psycho","1","Im Rahmen einer Geschäftsveranstaltung findet derzeit ein Austausch über Arbeitsbedingungen und gesellschaftliche Entwicklungen statt. Die <RN>Arbeitnehmer*innen</RN> erwarten höhere Gehälter und klimatisierte Arbeitsplätze, aber diese <AN>Männer</AN> wollen auch weniger arbeiten. Die Frage nach den Konsequenzen bleibt offen.","1","1024","2","48000","-16","experiment","1","odd","NA","7471.518400001514","7472.4664999994275","8691.086999999243","14129.050800002005","92644.47410000139","14171.609400000307","92644.5315000019","8658.026500001142","NA","92406.62349999911","90430.61099999977","78267.5178999998","14171.639899999718","92644.1679999989","Experiment","0","0","0","1920"
"<AN>Frauen</AN>","C6","<RN>Unternehmer*innen</RN>","undefined","undefined","undefined","undefined","#232323","psycho","psycho","psycho","undefined","undefined","0","0","0","0","0","48","0","48","0","0","48","48","48","0","48","Thu Jul 23 13:29:22 2026","The main experiment item","False","experiment.osexp","C:\Users\sschu\Documents\GitHub\ET_course_project_gender-bias\experiment","False","mono","False","39","no","white","no","no","1080","4","psycho","3","48","48","C:\Users\sschu\Documents\GitHub\ET_course_project_gender-bias\experiment\subject-1.csv","psycho","Neonatal Nightingale","4.1.9","2","0","right","NA","right","right","1974.7195999989344","NA","5436.1836000025505","1974.7195999989344","2","psycho","1","Bei einem Networking-Event stehen wirtschaftspolitische und gesellschaftliche Fragestellungen im Mittelpunkt der Diskussion. Die <RN>Unternehmer</RN> brauchen weniger bürokratische Hürden und sprechen über Verbesserungen, doch diese <AN>Männer</AN> fordern weitere steuerliche Entlastungen. Die Folgen dieser Positionen bleiben umstritten.","1","1024","2","48000","-16","experiment","1","odd","NA","7471.518400001514","7472.4664999994275","8691.086999999243","14129.050800002005","92664.86300000179","14171.609400000307","92664.91849999875","8658.026500001142","NA","92406.62349999911","90430.61099999977","78267.5178999998","14171.639899999718","92664.74079999898","Experiment","0","0","0","1920"
"<AN>Männer</AN>","C5","<RN>Unternehmer*innen</RN>","undefined","undefined","undefined","undefined","#232323","psycho","psycho","psycho","undefined","undefined","0","0","0","0","0","49","0","49","0","0","49","49","49","0","49","Thu Jul 23 13:29:22 2026","The main experiment item","False","experiment.osexp","C:\Users\sschu\Documents\GitHub\ET_course_project_gender-bias\experiment","False","mono","False","39","no","white","no","no","1080","4","psycho","2","49","49","C:\Users\sschu\Documents\GitHub\ET_course_project_gender-bias\experiment\subject-1.csv","psycho","Neonatal Nightingale","4.1.9","2","0","right","NA","right","right","1974.7195999989344","NA","5436.1836000025505","1974.7195999989344","2","psycho","1","Bei einem Networking-Event stehen wirtschaftspolitische und gesellschaftliche Fragestellungen im Mittelpunkt der Diskussion. Die <RN>Unternehmer</RN> brauchen weniger bürokratische Hürden und sprechen über Verbesserungen, doch diese <AN>Männer</AN> fordern weitere steuerliche Entlastungen. Die Folgen dieser Positionen bleiben umstritten.","1","1024","2","48000","-16","experiment","1","odd","NA","7471.518400001514","7472.4664999994275","8691.086999999243","14129.050800002005","92686.62509999922","14171.609400000307","92686.67859999914","8658.026500001142","NA","92406.62349999911","90430.61099999977","78267.5178999998","14171.639899999718","92686.54310000056","Experiment","0","0","0","1920"
"<AN>Frauen</AN>","C2","<RN>Experten</RN>","undefined","undefined","undefined","undefined","#232323","psycho","psycho","psycho","undefined","undefined","0","0","0","0","0","50","0","50","0","0","50","50","50","0","50","Thu Jul 23 13:29:22 2026","The main experiment item","False","experiment.osexp","C:\Users\sschu\Documents\GitHub\ET_course_project_gender-bias\experiment","False","mono","False","39","no","white","no","no","1080","14","psycho","1","50","50","C:\Users\sschu\Documents\GitHub\ET_course_project_gender-bias\experiment\subject-1.csv","psycho","Neonatal Nightingale","4.1.9","2","0","right","NA","right","right","1305.5509999976493","NA","5436.1836000025505","1305.5509999976493","2","psycho","1","Auf einer öffentlichen Veranstaltung stehen Investitionen und langfristige gesellschaftliche Entwicklungen zur Diskussion. Die <RN>Fachfrauen</RN> unterstützen höhere Investitionen und langfristige Entwicklungen, doch diese <AN>Männer</AN> kritisieren die Umsetzung. Die politischen Folgen werden unterschiedlich bewertet.","0","1024","2","48000","-16","experiment","1","odd","NA","7471.518400001514","7472.4664999994275","8691.086999999243","14129.050800002005","92707.21910000066","14171.609400000307","100078.95800000188","8658.026500001142","NA","100036.28240000035","98729.29360000126","92707.2659000005","14171.639899999718","92707.10110000073","Experiment","0","0","0","1920"
"<AN>Männer</AN>","C1","<RN>Aktivisten</RN>","undefined","undefined","undefined","undefined","#232323","psycho","psycho","psycho","undefined","undefined","0","0","0","0","0","51","0","51","0","0","51","51","51","0","51","Thu Jul 23 13:29:22 2026","The main experiment item","False","experiment.osexp","C:\Users\sschu\Documents\GitHub\ET_course_project_gender-bias\experiment","False","mono","False","39","no","white","no","no","1080","11","psycho","3","51","51","C:\Users\sschu\Documents\GitHub\ET_course_project_gender-bias\experiment\subject-1.csv","psycho","Neonatal Nightingale","4.1.9","2","0","right","NA","right","right","1305.5509999976493","NA","5436.1836000025505","1305.5509999976493","2","psycho","1","Auf einer öffentlichen Veranstaltung werden aktuelle wohnungs- und gesellschaftspolitische Themen diskutiert. Die <RN>Aktivist*innen</RN> fordern mehr bezahlbaren Wohnraum in Stuttgart für alle und diskutieren faire Lösungsansätze, doch diese <AN>Frauen</AN> sehen die Verantwortung stärker beim Bund. Die Auswirkungen der Entscheidung werden noch geprüft.","1","1024","2","48000","-16","experiment","1","odd","NA","7471.518400001514","7472.4664999994275","8691.086999999243","14129.050800002005","100099.7634000014","14171.609400000307","100099.81509999852","8658.026500001142","NA","100036.28240000035","98729.29360000126","92707.2659000005","14171.639899999718","100099.51469999942","Experiment","0","0","0","1920"
"<AN>Männer</AN>","C5","<RN>Student*innen</RN>","undefined","undefined","undefined","undefined","#232323","psycho","psycho","psycho","undefined","undefined","0","0","0","0","0","52","0","52","0","0","52","52","52","0","52","Thu Jul 23 13:29:22 2026","The main experiment item","False","experiment.osexp","C:\Users\sschu\Documents\GitHub\ET_course_project_gender-bias\experiment","False","mono","False","39","no","white","no","no","1080","1","psycho","5","52","52","C:\Users\sschu\Documents\GitHub\ET_course_project_gender-bias\experiment\subject-1.csv","psycho","Neonatal Nightingale","4.1.9","2","0","right","NA","right","right","1305.5509999976493","NA","5436.1836000025505","1305.5509999976493","2","psycho","1","Bei einer Podiumsdiskussion an der Universität wird über aktuelle gesellschaftliche Themen gesprochen. Die <RN>Studenten</RN> müssten wieder stärker leistungsorientiert gefördert werden, doch die Mehrheit dieser dort teilnehmenden <AN>Frauen</AN> kritisiert die neuen Anforderungen. Die weitere Entwicklung bleibt Gegenstand öffentlicher Debatten.","1","1024","2","48000","-16","experiment","1","odd","NA","7471.518400001514","7472.4664999994275","8691.086999999243","14129.050800002005","100120.06459999975","14171.609400000307","100120.12210000103","8658.026500001142","NA","100036.28240000035","98729.29360000126","92707.2659000005","14171.639899999718","100119.94300000151","Experiment","0","0","0","1920"
"<AN>Männern</AN>","C1","<RN>Einwohner</RN>","undefined","undefined","undefined","undefined","#232323","psycho","psycho","psycho","undefined","undefined","0","0","0","0","0","53","0","53","0","0","53","53","53","0","53","Thu Jul 23 13:29:22 2026","The main experiment item","False","experiment.osexp","C:\Users\sschu\Documents\GitHub\ET_course_project_gender-bias\experiment","False","mono","False","39","no","white","no","no","1080","13","psycho","1","53","53","C:\Users\sschu\Documents\GitHub\ET_course_project_gender-bias\experiment\subject-1.csv","psycho","Neonatal Nightingale","4.1.9","2","0","right","NA","right","right","511.1359000002267","NA","5436.1836000025505","511.1359000002267","2","psycho","1","Im Rahmen einer öffentlichen Veranstaltung wird über Sicherheit, gesellschaftlichen Zusammenhalt und politische Reformen gesprochen. Die <RN>Bürgerinnen</RN> wünschen sich mehr Sicherheit und verlässliche Perspektiven, doch diese Gruppe von <AN>Frauen</AN> sieht Reformbedarf im System. Die weitere Entwicklung bleibt Gegenstand öffentlicher Debatten.","0","1024","2","48000","-16","experiment","1","odd","NA","7471.518400001514","7472.4664999994275","8691.086999999243","14129.050800002005","100139.26509999874","14171.609400000307","106413.05590000047","8658.026500001142","NA","106370.62040000092","105858.3366999992","100139.30420000179","14171.639899999718","100139.18410000042","Experiment","0","0","0","1920"
"<AN>Frauen</AN>","C6","<RN>Arbeitnehmer*innen</RN>","undefined","undefined","undefined","undefined","#232323","psycho","psycho","psycho","undefined","undefined","0","0","0","0","0","54","0","54","0","0","54","54","54","0","54","Thu Jul 23 13:29:22 2026","The main experiment item","False","experiment.osexp","C:\Users\sschu\Documents\GitHub\ET_course_project_gender-bias\experiment","False","mono","False","39","no","white","no","no","1080","5","psycho","2","54","54","C:\Users\sschu\Documents\GitHub\ET_course_project_gender-bias\experiment\subject-1.csv","psycho","Neonatal Nightingale","4.1.9","2","0","right","NA","right","right","511.1359000002267","NA","5436.1836000025505","511.1359000002267","2","psycho","1","Im Rahmen einer Geschäftsveranstaltung findet derzeit ein Austausch über Arbeitsbedingungen und gesellschaftliche Entwicklungen statt. Die <RN>Arbeitnehmer*innen</RN> erwarten höhere Gehälter und klimatisierte Arbeitsplätze, aber diese <AN>Männer</AN> wollen auch weniger arbeiten. Die Frage nach den Konsequenzen bleibt offen.","1","1024","2","48000","-16","experiment","1","odd","NA","7471.518400001514","7472.4664999994275","8691.086999999243","14129.050800002005","106445.61809999868","14171.609400000307","106445.67449999886","8658.026500001142","NA","106370.62040000092","105858.3366999992","100139.30420000179","14171.639899999718","106445.36349999908","Experiment","0","0","0","1920"
"<AN>Frauen</AN>","C2","<RN>Ingenieure</RN>","undefined","undefined","undefined","undefined","#232323","psycho","psycho","psycho","undefined","undefined","0","0","0","0","0","55","0","55","0","0","55","55","55","0","55","Thu Jul 23 13:29:22 2026","The main experiment item","False","experiment.osexp","C:\Users\sschu\Documents\GitHub\ET_course_project_gender-bias\experiment","False","mono","False","39","no","white","no","no","1080","3","psycho","6","55","55","C:\Users\sschu\Documents\GitHub\ET_course_project_gender-bias\experiment\subject-1.csv","psycho","Neonatal Nightingale","4.1.9","2","0","right","NA","right","right","511.1359000002267","NA","5436.1836000025505","511.1359000002267","2","psycho","1","Auf einer wissenschaftlichen Konferenz zu technischen Zukunftsfragen werden derzeit aktuelle gesellschaftliche Themen erörtert. Die <RN>Ingenieur*innen</RN> spielen eine zentrale Rolle bei der Energiewende und stehen vor Herausforderungen, doch diese <AN>Frauen</AN> lehnen zusätzliche Investitionen ab. Über die Konsequenzen wird weiterhin intensiv gestritten.","1","1024","2","48000","-16","experiment","1","odd","NA","7471.518400001514","7472.4664999994275","8691.086999999243","14129.050800002005","106467.14789999896","14171.609400000307","106467.21510000134","8658.026500001142","NA","106370.62040000092","105858.3366999992","100139.30420000179","14171.639899999718","106466.78149999934","Experiment","0","0","0","1920"
"<AN>Männer</AN>","C5","<RN>Aktivist*innen</RN>","undefined","undefined","undefined","undefined","#232323","psycho","psycho","psycho","undefined","undefined","0","0","0","0","0","56","0","56","0","0","56","56","56","0","56","Thu Jul 23 13:29:22 2026","The main experiment item","False","experiment.osexp","C:\Users\sschu\Documents\GitHub\ET_course_project_gender-bias\experiment","False","mono","False","39","no","white","no","no","1080","11","psycho","1","56","56","C:\Users\sschu\Documents\GitHub\ET_course_project_gender-bias\experiment\subject-1.csv","psycho","Neonatal Nightingale","4.1.9","2","0","right","NA","right","right","3924.2620000004536","NA","5436.1836000025505","3924.2620000004536","2","psycho","1","Auf einer öffentlichen Veranstaltung werden aktuelle wohnungs- und gesellschaftspolitische Themen diskutiert. Die <RN>Aktivist*innen</RN> fordern mehr bezahlbaren Wohnraum in Stuttgart und diskutieren faire Lösungsansätze, doch diese <AN>Frauen</AN> sehen die Verantwortung stärker beim Bund. Die Auswirkungen der Entscheidung werden noch geprüft.","0","1024","2","48000","-16","experiment","1","odd","NA","7471.518400001514","7472.4664999994275","8691.086999999243","14129.050800002005","106486.74810000011","14171.609400000307","117688.70740000057","8658.026500001142","NA","117646.42879999883","113721.47089999999","106486.78859999927","14171.639899999718","106486.67170000044","Experiment","0","0","0","1920"
"<AN>Frauen</AN>","C6","<RN>Krankenpfleger*innen</RN>","undefined","undefined","undefined","undefined","#232323","psycho","psycho","psycho","undefined","undefined","0","0","0","0","0","57","0","57","0","0","57","57","57","0","57","Thu Jul 23 13:29:22 2026","The main experiment item","False","experiment.osexp","C:\Users\sschu\Documents\GitHub\ET_course_project_gender-bias\experiment","False","mono","False","39","no","white","no","no","1080","16","psycho","3","57","57","C:\Users\sschu\Documents\GitHub\ET_course_project_gender-bias\experiment\subject-1.csv","psycho","Neonatal Nightingale","4.1.9","2","0","right","NA","right","right","3924.2620000004536","NA","5436.1836000025505","3924.2620000004536","2","psycho","1","Bei einer Informationsveranstaltung im Krankenhaus wird über aktuelle Impfreformen und deren Auswirkungen gesprochen. Die <RN>Krankenschwestern</RN> diskutieren über Long Covid und setzen sich für mehr Unterstützung ein, doch diese <AN>Männer</AN> lehnen die Vorschläge ab. Die nächsten Schritte werden derzeit kontrovers diskutiert.","1","1024","2","48000","-16","experiment","1","odd","NA","7471.518400001514","7472.4664999994275","8691.086999999243","14129.050800002005","117721.7982000002","14171.609400000307","117721.85000000172","8658.026500001142","NA","117646.42879999883","113721.47089999999","106486.78859999927","14171.639899999718","117721.71349999917","Experiment","0","0","0","1920"
"<AN>Frauen</AN>","C6","<RN>Expert*innen</RN>","undefined","undefined","undefined","undefined","#232323","psycho","psycho","psycho","undefined","undefined","0","0","0","0","0","58","0","58","0","0","58","58","58","0","58","Thu Jul 23 13:29:22 2026","The main experiment item","False","experiment.osexp","C:\Users\sschu\Documents\GitHub\ET_course_project_gender-bias\experiment","False","mono","False","39","no","white","no","no","1080","10","psycho","3","58","58","C:\Users\sschu\Documents\GitHub\ET_course_project_gender-bias\experiment\subject-1.csv","psycho","Neonatal Nightingale","4.1.9","2","0","right","NA","right","right","3924.2620000004536","NA","5436.1836000025505","3924.2620000004536","2","psycho","1","Im Rahmen einer universitären Veranstaltung werden aktuelle Fragestellungen der Rüstungsindustrie behandelt. Die große Mehrheit dieser <RN>Fachleute</RN> sehen eine stärkere Aufrüstung für Deutschland als notwendig, doch diese Gruppe von <AN>Frauen</AN> kritisiert dessen Finanzierung. Die Auswirkungen der Entscheidung werden noch geprüft.","1","1024","2","48000","-16","experiment","1","odd","NA","7471.518400001514","7472.4664999994275","8691.086999999243","14129.050800002005","117741.65659999926","14171.609400000307","117741.70579999918","8658.026500001142","NA","117646.42879999883","113721.47089999999","106486.78859999927","14171.639899999718","117741.5777999995","Experiment","0","0","0","1920"
"<AN>Frauen</AN>","C6","<RN>Expert*innen</RN>","undefined","undefined","undefined","undefined","#232323","psycho","psycho","psycho","undefined","undefined","0","0","0","0","0","59","0","59","0","0","59","59","59","0","59","Thu Jul 23 13:29:22 2026","The main experiment item","False","experiment.osexp","C:\Users\sschu\Documents\GitHub\ET_course_project_gender-bias\experiment","False","mono","False","39","no","white","no","no","1080","14","psycho","5","59","59","C:\Users\sschu\Documents\GitHub\ET_course_project_gender-bias\experiment\subject-1.csv","psycho","Neonatal Nightingale","4.1.9","2","0","right","NA","right","right","3924.2620000004536","NA","5436.1836000025505","3924.2620000004536","2","psycho","1","Auf einer öffentlichen Veranstaltung stehen Investitionen und langfristige gesellschaftliche Entwicklungen zur Diskussion. Die <RN>Fachfrauen</RN> unterstützen höhere Investitionen und langfristige Entwicklungen, doch diese <AN>Männer</AN> kritisieren die Umsetzung. Die politischen Folgen werden unterschiedlich bewertet.","1","1024","2","48000","-16","experiment","1","odd","NA","7471.518400001514","7472.4664999994275","8691.086999999243","14129.050800002005","117761.47440000204","14171.609400000307","117761.52530000036","8658.026500001142","NA","117646.42879999883","113721.47089999999","106486.78859999927","14171.639899999718","117761.39450000119","Experiment","0","0","0","1920"
"<AN>Männer</AN>","C3","<RN>Studentinnen</RN>","undefined","undefined","undefined","undefined","#232323","psycho","psycho","psycho","undefined","undefined","0","0","0","0","0","60","0","60","0","0","60","60","60","0","60","Thu Jul 23 13:29:22 2026","The main experiment item","False","experiment.osexp","C:\Users\sschu\Documents\GitHub\ET_course_project_gender-bias\experiment","False","mono","False","39","no","white","no","no","1080","1","psycho","3","60","60","C:\Users\sschu\Documents\GitHub\ET_course_project_gender-bias\experiment\subject-1.csv","psycho","Neonatal Nightingale","4.1.9","2","0","right","NA","right","right","3924.2620000004536","NA","5436.1836000025505","3924.2620000004536","2","psycho","1","Bei einer Podiumsdiskussion an der Universität Stuttgart wird über aktuelle gesellschaftliche Themen gesprochen. Die <RN>Studenten</RN> müssten wieder stärker leistungsorientiert gefördert werden, doch die Mehrheit dieser dort teilnehmenden <AN>Frauen</AN> kritisiert die neuen Anforderungen. Die weitere Entwicklung bleibt Gegenstand öffentlicher Debatten.","1","1024","2","48000","-16","experiment","1","odd","NA","7471.518400001514","7472.4664999994275","8691.086999999243","14129.050800002005","117781.10580000066","14171.609400000307","117781.15869999965","8658.026500001142","NA","117646.42879999883","113721.47089999999","106486.78859999927","14171.639899999718","117780.99709999879","Experiment","0","0","0","1920"
"<AN>Frauen</AN>","C4","<RN>Expertinnen</RN>","undefined","undefined","undefined","undefined","#232323","psycho","psycho","psycho","undefined","undefined","0","0","0","0","0","61","0","61","0","0","61","61","61","0","61","Thu Jul 23 13:29:22 2026","The main experiment item","False","experiment.osexp","C:\Users\sschu\Documents\GitHub\ET_course_project_gender-bias\experiment","False","mono","False","39","no","white","no","no","1080","14","psycho","3","61","61","C:\Users\sschu\Documents\GitHub\ET_course_project_gender-bias\experiment\subject-1.csv","psycho","Neonatal Nightingale","4.1.9","2","0","right","NA","right","right","3924.2620000004536","NA","5436.1836000025505","3924.2620000004536","2","psycho","1","Auf einer öffentlichen Veranstaltung stehen Investitionen und langfristige gesellschaftliche Entwicklungen zur Diskussion. Die <RN>Fachfrauen</RN> unterstützen höhere Investitionen und langfristige Entwicklungen, doch diese <AN>Männer</AN> kritisieren die Umsetzung. Die politischen Folgen werden unterschiedlich bewertet.","1","1024","2","48000","-16","experiment","1","odd","NA","7471.518400001514","7472.4664999994275","8691.086999999243","14129.050800002005","117802.34539999947","14171.609400000307","117802.39839999922","8658.026500001142","NA","117646.42879999883","113721.47089999999","106486.78859999927","14171.639899999718","117802.25359999895","Experiment","0","0","0","1920"
"<AN>Männer</AN>","C3","<RN>Unternehmerinnen</RN>","undefined","undefined","undefined","undefined","#232323","psycho","psycho","psycho","undefined","undefined","0","0","0","0","0","62","0","62","0","0","62","62","62","0","62","Thu Jul 23 13:29:22 2026","The main experiment item","False","experiment.osexp","C:\Users\sschu\Documents\GitHub\ET_course_project_gender-bias\experiment","False","mono","False","39","no","white","no","no","1080","4","psycho","6","62","62","C:\Users\sschu\Documents\GitHub\ET_course_project_gender-bias\experiment\subject-1.csv","psycho","Neonatal Nightingale","4.1.9","2","0","right","NA","right","right","3924.2620000004536","NA","5436.1836000025505","3924.2620000004536","2","psycho","1","Bei einem Networking-Event stehen wirtschaftspolitische und gesellschaftliche Fragestellungen im Mittelpunkt der Diskussion. Die <RN>Unternehmer</RN> brauchen weniger bürokratische Hürden und sprechen über Verbesserungen, doch diese <AN>Männer</AN> fordern weitere steuerliche Entlastungen. Die Folgen dieser Positionen bleiben umstritten.","1","1024","2","48000","-16","experiment","1","odd","NA","7471.518400001514","7472.4664999994275","8691.086999999243","14129.050800002005","117823.47089999894","14171.609400000307","117823.52159999937","8658.026500001142","NA","117646.42879999883","113721.47089999999","106486.78859999927","14171.639899999718","117823.39710000088","Experiment","0","0","0","1920"
"<AN>Männern</AN>","C3","<RN>Expertinnen</RN>","undefined","undefined","undefined","undefined","#232323","psycho","psycho","psycho","undefined","undefined","0","0","0","0","0","63","0","63","0","0","63","63","63","0","63","Thu Jul 23 13:29:22 2026","The main experiment item","False","experiment.osexp","C:\Users\sschu\Documents\GitHub\ET_course_project_gender-bias\experiment","False","mono","False","39","no","white","no","no","1080","10","psycho","6","63","63","C:\Users\sschu\Documents\GitHub\ET_course_project_gender-bias\experiment\subject-1.csv","psycho","Neonatal Nightingale","4.1.9","2","0","right","NA","right","right","3924.2620000004536","NA","5436.1836000025505","3924.2620000004536","2","psycho","1","Im Rahmen einer universitären Veranstaltung werden aktuelle Fragestellungen der Rüstungsindustrie behandelt. Die große Mehrheit dieser <RN>Fachleute</RN> sehen eine stärkere Aufrüstung für Deutschland als notwendig, doch diese Gruppe von <AN>Frauen</AN> kritisiert dessen Finanzierung. Die Auswirkungen der Entscheidung werden noch geprüft.","1","1024","2","48000","-16","experiment","1","odd","NA","7471.518400001514","7472.4664999994275","8691.086999999243","14129.050800002005","117844.29259999888","14171.609400000307","117844.3522000016","8658.026500001142","NA","117646.42879999883","113721.47089999999","106486.78859999927","14171.639899999718","117844.19619999971","Experiment","0","0","0","1920"
"<AN>Männer</AN>","C1","<RN>Ingenieure</RN>","undefined","undefined","undefined","undefined","#232323","psycho","psycho","psycho","undefined","undefined","0","0","0","0","0","64","0","64","0","0","64","64","64","0","64","Thu Jul 23 13:29:22 2026","The main experiment item","False","experiment.osexp","C:\Users\sschu\Documents\GitHub\ET_course_project_gender-bias\experiment","False","mono","False","39","no","white","no","no","1080","3","psycho","5","64","64","C:\Users\sschu\Documents\GitHub\ET_course_project_gender-bias\experiment\subject-1.csv","psycho","Neonatal Nightingale","4.1.9","2","0","right","NA","right","right","3924.2620000004536","NA","5436.1836000025505","3924.2620000004536","2","psycho","1","Auf einer wissenschaftlichen Konferenz zu technischen Zukunftsfragen werden derzeit aktuelle gesellschaftliche Themen erörtert. Die <RN>Ingenieur*innen</RN> kritisieren die Energiewende und stehen vor Herausforderungen, doch diese <AN>Frauen</AN> lehnen zusätzliche Investitionen ab. Über die Konsequenzen wird weiterhin intensiv gestritten.","1","1024","2","48000","-16","experiment","1","odd","NA","7471.518400001514","7472.4664999994275","8691.086999999243","14129.050800002005","117864.45280000044","14171.609400000307","117864.50550000154","8658.026500001142","NA","117646.42879999883","113721.47089999999","106486.78859999927","14171.639899999718","117864.36650000178","Experiment","0","0","0","1920"
"<AN>Männer</AN>","C1","<RN>Studenten</RN>","undefined","undefined","undefined","undefined","#232323","psycho","psycho","psycho","undefined","undefined","0","0","0","0","0","65","0","65","0","0","65","65","65","0","65","Thu Jul 23 13:29:22 2026","The main experiment item","False","experiment.osexp","C:\Users\sschu\Documents\GitHub\ET_course_project_gender-bias\experiment","False","mono","False","39","no","white","no","no","1080","1","psycho","1","65","65","C:\Users\sschu\Documents\GitHub\ET_course_project_gender-bias\experiment\subject-1.csv","psycho","Neonatal Nightingale","4.1.9","2","0","right","NA","right","right","467.06839999751537","NA","5436.1836000025505","467.06839999751537","2","psycho","1","Bei einer Podiumsdiskussion an der Universität wird über aktuelle gesellschaftliche Themen gesprochen. Die <RN>Studenten</RN> müssten wieder stärker leistungsorientiert gefördert werden, doch die Mehrheit dieser dort teilnehmenden <AN>Frauen</AN> kritisiert die neuen Anforderungen. Die weitere Entwicklung bleibt Gegenstand öffentlicher Debatten.","0","1024","2","48000","-16","experiment","1","odd","NA","7471.518400001514","7472.4664999994275","8691.086999999243","14129.050800002005","117885.66469999932","14171.609400000307","125259.33630000145","8658.026500001142","NA","125217.05070000098","124748.97920000149","117885.70750000144","14171.639899999718","117885.55550000092","Experiment","0","0","0","1920"
"<AN>Männer</AN>","C3","<RN>Lehrerinnen</RN>","undefined","undefined","undefined","undefined","#232323","psycho","psycho","psycho","undefined","undefined","0","0","0","0","0","66","0","66","0","0","66","66","66","0","66","Thu Jul 23 13:29:22 2026","The main experiment item","False","experiment.osexp","C:\Users\sschu\Documents\GitHub\ET_course_project_gender-bias\experiment","False","mono","False","39","no","white","no","no","1080","6","psycho","4","66","66","C:\Users\sschu\Documents\GitHub\ET_course_project_gender-bias\experiment\subject-1.csv","psycho","Neonatal Nightingale","4.1.9","2","0","right","NA","right","right","467.06839999751537","NA","5436.1836000025505","467.06839999751537","2","psycho","1","Auf einer Konferenz zu Bildungsfragen in Stuttgart wird derzeit über aktuelle schulische Themen gesprochen. Die <RN>Lehrer</RN> sollen mehr auf Disziplin und Konsequenzen im Unterricht setzen, doch aus pädagogischen Gründen lehnen diese <AN>Frauen</AN> die Vorschläge ab. Die kommenden Entwicklungen sind weiterhin Gegenstand von Diskussionen.","1","1024","2","48000","-16","experiment","1","odd","NA","7471.518400001514","7472.4664999994275","8691.086999999243","14129.050800002005","125289.6170999993","14171.609400000307","125289.678000001","8658.026500001142","NA","125217.05070000098","124748.97920000149","117885.70750000144","14171.639899999718","125289.41900000063","Experiment","0","0","0","1920"
"<AN>Frauen</AN>","C6","<RN>Aktivist*innen</RN>","undefined","undefined","undefined","undefined","#232323","psycho","psycho","psycho","undefined","undefined","0","0","0","0","0","67","0","67","0","0","67","67","67","0","67","Thu Jul 23 13:29:22 2026","The main experiment item","False","experiment.osexp","C:\Users\sschu\Documents\GitHub\ET_course_project_gender-bias\experiment","False","mono","False","39","no","white","no","no","1080","11","psycho","2","67","67","C:\Users\sschu\Documents\GitHub\ET_course_project_gender-bias\experiment\subject-1.csv","psycho","Neonatal Nightingale","4.1.9","2","0","right","NA","right","right","467.06839999751537","NA","5436.1836000025505","467.06839999751537","2","psycho","1","Auf einer öffentlichen Veranstaltung werden aktuelle wohnungs- und gesellschaftspolitische Themen diskutiert. Die <RN>Aktivist*innen</RN> fordern mehr bezahlbaren Wohnraum in Stuttgart und diskutieren faire Lösungsansätze, doch diese <AN>Frauen</AN> sehen die Verantwortung stärker beim Bund. Die Auswirkungen der Entscheidung werden noch geprüft.","1","1024","2","48000","-16","experiment","1","odd","NA","7471.518400001514","7472.4664999994275","8691.086999999243","14129.050800002005","125308.80629999956","14171.609400000307","125308.85910000143","8658.026500001142","NA","125217.05070000098","124748.97920000149","117885.70750000144","14171.639899999718","125308.71720000141","Experiment","0","0","0","1920"
"<AN>Frauen</AN>","C2","<RN>Ingenieure</RN>","undefined","undefined","undefined","undefined","#232323","psycho","psycho","psycho","undefined","undefined","0","0","0","0","0","68","0","68","0","0","68","68","68","0","68","Thu Jul 23 13:29:22 2026","The main experiment item","False","experiment.osexp","C:\Users\sschu\Documents\GitHub\ET_course_project_gender-bias\experiment","False","mono","False","39","no","white","no","no","1080","17","psycho","4","68","68","C:\Users\sschu\Documents\GitHub\ET_course_project_gender-bias\experiment\subject-1.csv","psycho","Neonatal Nightingale","4.1.9","2","0","right","NA","right","right","467.06839999751537","NA","5436.1836000025505","467.06839999751537","2","psycho","1","Im Rahmen einer städtischen Planungsrunde wird über die zukünftige Mobilität und den Ausbau des Nahverkehrs diskutiert. Die <RN>Ingenieurinnen</RN> diskutieren über nachhaltige Verkehrskonzepte und setzen sich für den Ausbau des ÖPNV ein, doch diese <AN>Männer</AN> lehnen die Vorschläge ab. Die nächsten Schritte werden derzeit kontrovers diskutiert.","1","1024","2","48000","-16","experiment","1","odd","NA","7471.518400001514","7472.4664999994275","8691.086999999243","14129.050800002005","125328.53329999853","14171.609400000307","125328.58710000073","8658.026500001142","NA","125217.05070000098","124748.97920000149","117885.70750000144","14171.639899999718","125328.45570000063","Experiment","0","0","0","1920"
