"AN","Code","RN","acc","accuracy","an_found","an_height","an_line","an_text","an_width","an_x1","an_x2","an_y1","an_y2","average_response_time","avg_rt","background","box_width","canvas_backend","central_fixation","clean_word","clock_backend","color_backend","correct","correct_instruction","correct_question_sketchpad","count_ending_sketchpad","count_experiment","count_eyetracker_calibration","count_instruction","count_instruction_pygaze_log","count_list_filter","count_liste_auswahl","count_logger","count_new_inline_script","count_pygaze_start_recording","count_pygaze_stop_recording","count_question_pygaze_log","count_question_sketchpad","count_sentence_script","count_trial_loop","count_trial_sequence","cross_size","cross_x","cross_y","current_line","current_line_width","d","datetime","description","disable_garbage_collection","display_sentence","experiment_file","experiment_path","font_bold","font_family","font_italic","font_size","font_underline","foreground","form_clicks","fullscreen","height","item","key","keyboard_backend","last_line_y","line_height_factor","line_spacing","list","live_row","live_row_trial_loop","logfile","margin","mouse_backend","name","opensesame_codename","opensesame_version","position_x","position_y","psychopy_screen","repeat_cycle","response","response_ending_sketchpad","response_instruction","response_key","response_question_sketchpad","response_time","response_time_ending_sketchpad","response_time_instruction","response_time_question_sketchpad","rn_found","rn_height","rn_line","rn_text","rn_width","rn_x1","rn_x2","rn_y1","rn_y2","round_decimals","sampler_backend","selected_list","sentence","sentence_text","skip_trial","sound_buf_size","sound_channels","sound_freq","sound_sample_size","spill_height","spill_line","spill_width","spill_x1","spill_x2","spill_y1","spill_y2","start","subject_nr","subject_parity","t0","text_start_x","text_start_y","time_ending_sketchpad","time_experiment","time_eyetracker_calibration","time_instruction","time_instruction_pygaze_log","time_list_filter","time_liste_auswahl","time_logger","time_new_inline_script","time_pygaze_start_recording","time_pygaze_stop_recording","time_question_pygaze_log","time_question_sketchpad","time_sentence_script","time_trial_loop","time_trial_sequence","timestamp","title","total_correct","total_response_time","total_responses","width","word","word_height","word_spacing","word_width"
"<AN>Männer</AN>","C3","<RN>Pflegerinnen</RN>","undefined","undefined","None","None","None","None","None","None","None","None","None","undefined","undefined","#232323","None","legacy","None","None","legacy","legacy","undefined","undefined","None","0","0","0","0","0","0","0","0","0","0","0","0","0","0","0","0","None","None","None","None","None","None","Thu Jul 23 18:03:11 2026","The main experiment item","False","None","experiment.osexp","C:\Users\sschu\Documents\GitHub\ET_course_project_gender-bias\experiment","False","mono","False","18","no","white","no","yes","1080","2","None","legacy","None","None","None","2","0","0","C:\Users\sschu\Documents\GitHub\ET_course_project_gender-bias\experiment\subject-3.csv","None","legacy","an_found","Neonatal Nightingale","4.1.9","None","None","2","0","right","NA","right","None","NA","3605.0","NA","3605","NA","None","None","None","None","None","None","None","None","None","2","legacy","1","None","Im Rahmen einer Gesprächsrunde im Gesundheitswesen wird derzeit über aktuelle gesellschaftliche Herausforderungen diskutiert. Die <RN>Pflegekräfte</RN> verdienen bessere Arbeitsbedingungen und benötigen mehr Unterstützung, doch diese <AN>Männer</AN> fühlen sich politisch nicht ausreichend unterstützt. Die nächsten Schritte werden derzeit kontrovers diskutiert.","1","1024","2","48000","-16","None","None","None","None","None","None","None","experiment","3","odd","None","None","None","NA","2845","2846","10957","14563","14621","14605","14621","10956","10956","NA","NA","NA","NA","14605","14621","None","Experiment","0","0","0","1920","None","None","None","None"
"<AN>Männer</AN>","C5","<RN>Krankenpfleger*innen</RN>","undefined","undefined","None","None","None","None","None","None","None","None","None","undefined","undefined","#232323","None","legacy","None","None","legacy","legacy","undefined","undefined","None","0","0","0","0","0","1","0","1","0","0","0","1","1","1","0","1","None","None","None","None","None","None","Thu Jul 23 18:03:11 2026","The main experiment item","False","None","experiment.osexp","C:\Users\sschu\Documents\GitHub\ET_course_project_gender-bias\experiment","False","mono","False","18","no","white","no","yes","1080","16","None","legacy","None","None","None","2","1","1","C:\Users\sschu\Documents\GitHub\ET_course_project_gender-bias\experiment\subject-3.csv","None","legacy","an_found","Neonatal Nightingale","4.1.9","None","None","2","0","right","NA","right","None","NA","3605.0","NA","3605","NA","None","None","None","None","None","None","None","None","None","2","legacy","1","None","Bei einer Informationsveranstaltung im Krankenhaus wird über aktuelle Impfreformen und deren Auswirkungen gesprochen. Die <RN>Krankenschwestern</RN> diskutieren über Long Covid und setzen sich für mehr Unterstützung ein, doch diese <AN>Männer</AN> lehnen die Vorschläge ab. Die nächsten Schritte werden derzeit kontrovers diskutiert.","1","1024","2","48000","-16","None","None","None","None","None","None","None","experiment","3","odd","None","None","None","NA","2845","2846","10957","14563","14642","14605","14642","10956","10956","NA","NA","NA","NA","14605","14642","None","Experiment","0","0","0","1920","None","None","None","None"
"<AN>Frauen</AN>","C2","<RN>Ingenieure</RN>","undefined","undefined","None","None","None","None","None","None","None","None","None","undefined","undefined","#232323","None","legacy","None","None","legacy","legacy","undefined","undefined","None","0","0","0","0","0","2","0","2","0","0","0","2","2","2","0","2","None","None","None","None","None","None","Thu Jul 23 18:03:11 2026","The main experiment item","False","None","experiment.osexp","C:\Users\sschu\Documents\GitHub\ET_course_project_gender-bias\experiment","False","mono","False","18","no","white","no","yes","1080","3","None","legacy","None","None","None","6","2","2","C:\Users\sschu\Documents\GitHub\ET_course_project_gender-bias\experiment\subject-3.csv","None","legacy","an_found","Neonatal Nightingale","4.1.9","None","None","2","0","right","NA","right","None","NA","3605.0","NA","3605","NA","None","None","None","None","None","None","None","None","None","2","legacy","1","None","Auf einer wissenschaftlichen Konferenz zu technischen Zukunftsfragen werden derzeit aktuelle gesellschaftliche Themen erörtert. Die <RN>Ingenieur*innen</RN> spielen eine zentrale Rolle bei der Energiewende und stehen vor Herausforderungen, doch diese <AN>Frauen</AN> lehnen zusätzliche Investitionen ab. Über die Konsequenzen wird weiterhin intensiv gestritten.","1","1024","2","48000","-16","None","None","None","None","None","None","None","experiment","3","odd","None","None","None","NA","2845","2846","10957","14563","14659","14605","14659","10956","10956","NA","NA","NA","NA","14605","14659","None","Experiment","0","0","0","1920","None","None","None","None"
"<AN>Frauen</AN>","C4","<RN>Dozentinnen</RN>","undefined","undefined","None","None","None","None","None","None","None","None","None","undefined","undefined","#232323","None","legacy","None","None","legacy","legacy","undefined","undefined","None","0","0","0","0","0","3","0","3","0","0","0","3","3","3","0","3","None","None","None","None","None","None","Thu Jul 23 18:03:11 2026","The main experiment item","False","None","experiment.osexp","C:\Users\sschu\Documents\GitHub\ET_course_project_gender-bias\experiment","False","mono","False","18","no","white","no","yes","1080","9","None","legacy","None","None","None","2","3","3","C:\Users\sschu\Documents\GitHub\ET_course_project_gender-bias\experiment\subject-3.csv","None","legacy","an_found","Neonatal Nightingale","4.1.9","None","None","2","0","right","NA","right","None","NA","3605.0","NA","3605","NA","None","None","None","None","None","None","None","None","None","2","legacy","1","None","Auf einer schulischen Tagung werden aktuelle Kontroversen rund um Vorlesungsführung und Leistungsbewertung diskutiert. Die <RN>Dozent*innen</RN> fordern erhöhte Leistungsorientierung und strengere Notenvergabe im Lehrplan, doch diese <AN>Männer</AN> stoßen dabei auf Gegendruck von Eltern. Die Debatte über das Thema hält weiter an.","1","1024","2","48000","-16","None","None","None","None","None","None","None","experiment","3","odd","None","None","None","NA","2845","2846","10957","14563","14676","14605","14676","10956","10956","NA","NA","NA","NA","14605","14676","None","Experiment","0","0","0","1920","None","None","None","None"
"<AN>Frauen</AN>","C4","<RN>Ingenieurinnen</RN>","undefined","undefined","None","None","None","None","None","None","None","None","None","undefined","undefined","#232323","None","legacy","None","None","legacy","legacy","undefined","undefined","None","0","0","0","0","0","4","0","4","0","0","0","4","4","4","0","4","None","None","None","None","None","None","Thu Jul 23 18:03:11 2026","The main experiment item","False","None","experiment.osexp","C:\Users\sschu\Documents\GitHub\ET_course_project_gender-bias\experiment","False","mono","False","18","no","white","no","yes","1080","3","None","legacy","None","None","None","2","4","4","C:\Users\sschu\Documents\GitHub\ET_course_project_gender-bias\experiment\subject-3.csv","None","legacy","an_found","Neonatal Nightingale","4.1.9","None","None","2","0","right","NA","right","None","NA","3605.0","NA","3605","NA","None","None","None","None","None","None","None","None","None","2","legacy","1","None","Auf einer wissenschaftlichen Konferenz zu technischen Zukunftsfragen werden derzeit aktuelle gesellschaftliche Themen erörtert. Die <RN>Ingenieur*innen</RN> kritisieren die Energiewende und stehen vor Herausforderungen, doch diese <AN>Frauen</AN> lehnen zusätzliche Investitionen ab. Über die Konsequenzen wird weiterhin intensiv gestritten.","1","1024","2","48000","-16","None","None","None","None","None","None","None","experiment","3","odd","None","None","None","NA","2845","2846","10957","14563","14694","14605","14694","10956","10956","NA","NA","NA","NA","14605","14694","None","Experiment","0","0","0","1920","None","None","None","None"
"<AN>Männer</AN>","C5","<RN>Professor*innen</RN>","undefined","undefined","None","None","None","None","None","None","None","None","None","undefined","undefined","#232323","None","legacy","None","None","legacy","legacy","undefined","undefined","None","0","0","0","0","0","5","0","5","0","0","0","5","5","5","0","5","None","None","None","None","None","None","Thu Jul 23 18:03:11 2026","The main experiment item","False","None","experiment.osexp","C:\Users\sschu\Documents\GitHub\ET_course_project_gender-bias\experiment","False","mono","False","18","no","white","no","yes","1080","15","None","legacy","None","None","None","3","5","5","C:\Users\sschu\Documents\GitHub\ET_course_project_gender-bias\experiment\subject-3.csv","None","legacy","an_found","Neonatal Nightingale","4.1.9","None","None","2","0","right","NA","right","None","NA","3605.0","NA","3605","NA","None","None","None","None","None","None","None","None","None","2","legacy","1","None","Im Rahmen einer öffentlichen Veranstaltung wird über die Zukunft der Hochschulen und die Forschungsförderung diskutiert. Die <RN>Professorinnen</RN> diskutieren über die Zukunft der Hochschulen und setzen sich für mehr Forschungsgelder ein, doch diese <AN>Männer</AN> lehnen die Vorschläge ab. Die nächsten Schritte werden derzeit kontrovers diskutiert.","1","1024","2","48000","-16","None","None","None","None","None","None","None","experiment","3","odd","None","None","None","NA","2845","2846","10957","14563","14711","14605","14711","10956","10956","NA","NA","NA","NA","14605","14711","None","Experiment","0","0","0","1920","None","None","None","None"
"<AN>Frauen</AN>","C4","<RN>Expertinnen</RN>","undefined","undefined","None","None","None","None","None","None","None","None","None","undefined","undefined","#232323","None","legacy","None","None","legacy","legacy","undefined","undefined","None","0","0","0","0","0","6","0","6","0","0","0","6","6","6","0","6","None","None","None","None","None","None","Thu Jul 23 18:03:11 2026","The main experiment item","False","None","experiment.osexp","C:\Users\sschu\Documents\GitHub\ET_course_project_gender-bias\experiment","False","mono","False","18","no","white","no","yes","1080","7","None","legacy","None","None","None","4","6","6","C:\Users\sschu\Documents\GitHub\ET_course_project_gender-bias\experiment\subject-3.csv","None","legacy","an_found","Neonatal Nightingale","4.1.9","None","None","2","0","right","NA","right","None","NA","3605.0","NA","3605","NA","None","None","None","None","None","None","None","None","None","2","legacy","1","None","Beim Sommerfest eines Unternehmens wird über wirtschaftliche Entwicklungen und gesellschaftliche Herausforderungen diskutiert. Die <RN>Fachleute</RN> sehen große Herausforderungen im nächsten Geschäftsjahr, dennoch bleiben diese <AN>Männer</AN> optimistisch. Die unternehmerischen Folgen werden unterschiedlich bewertet.","1","1024","2","48000","-16","None","None","None","None","None","None","None","experiment","3","odd","None","None","None","NA","2845","2846","10957","14563","14729","14605","14729","10956","10956","NA","NA","NA","NA","14605","14729","None","Experiment","0","0","0","1920","None","None","None","None"
"<AN>Männer</AN>","C1","<RN>Polizisten</RN>","undefined","undefined","None","None","None","None","None","None","None","None","None","undefined","undefined","#232323","None","legacy","None","None","legacy","legacy","undefined","undefined","None","0","0","0","0","0","7","0","7","0","0","0","7","7","7","0","7","None","None","None","None","None","None","Thu Jul 23 18:03:11 2026","The main experiment item","False","None","experiment.osexp","C:\Users\sschu\Documents\GitHub\ET_course_project_gender-bias\experiment","False","mono","False","18","no","white","no","yes","1080","18","None","legacy","None","None","None","2","7","7","C:\Users\sschu\Documents\GitHub\ET_course_project_gender-bias\experiment\subject-3.csv","None","legacy","an_found","Neonatal Nightingale","4.1.9","None","None","2","0","right","NA","right","None","NA","3605.0","NA","3605","NA","None","None","None","None","None","None","None","None","None","2","legacy","1","None","Bei einer öffentlichen Sitzung im Rathaus wird über neue Verkehrsregelungen gesprochen. Die <RN>Polizistinnen</RN> diskutieren laut über mehr Sicherheit im Straßenverkehr und setzen sich für strengere Kontrollen ein, doch diese <AN>Männer</AN> lehnen die Vorschläge ab. Die nächsten Maßnahmen werden derzeit kontrovers verhandelt.","1","1024","2","48000","-16","None","None","None","None","None","None","None","experiment","3","odd","None","None","None","NA","2845","2846","10957","14563","14747","14605","14747","10956","10956","NA","NA","NA","NA","14605","14747","None","Experiment","0","0","0","1920","None","None","None","None"
"<AN>Männern</AN>","C3","<RN>Expertinnen</RN>","undefined","undefined","None","None","None","None","None","None","None","None","None","undefined","undefined","#232323","None","legacy","None","None","legacy","legacy","undefined","undefined","None","0","0","0","0","0","8","0","8","0","0","0","8","8","8","0","8","None","None","None","None","None","None","Thu Jul 23 18:03:11 2026","The main experiment item","False","None","experiment.osexp","C:\Users\sschu\Documents\GitHub\ET_course_project_gender-bias\experiment","False","mono","False","18","no","white","no","yes","1080","10","None","legacy","None","None","None","6","8","8","C:\Users\sschu\Documents\GitHub\ET_course_project_gender-bias\experiment\subject-3.csv","None","legacy","an_found","Neonatal Nightingale","4.1.9","None","None","2","0","right","NA","right","None","NA","3605.0","NA","3605","NA","None","None","None","None","None","None","None","None","None","2","legacy","1","None","Im Rahmen einer universitären Veranstaltung werden aktuelle Fragestellungen der Rüstungsindustrie behandelt. Die große Mehrheit dieser <RN>Fachleute</RN> sehen eine stärkere Aufrüstung für Deutschland als notwendig, doch diese Gruppe von <AN>Frauen</AN> kritisiert dessen Finanzierung. Die Auswirkungen der Entscheidung werden noch geprüft.","1","1024","2","48000","-16","None","None","None","None","None","None","None","experiment","3","odd","None","None","None","NA","2845","2846","10957","14563","14764","14605","14765","10956","10956","NA","NA","NA","NA","14605","14764","None","Experiment","0","0","0","1920","None","None","None","None"
"<AN>Männer</AN>","C3","<RN>Unternehmerinnen</RN>","undefined","undefined","None","None","None","None","None","None","None","None","None","undefined","undefined","#232323","None","legacy","None","None","legacy","legacy","undefined","undefined","None","0","0","0","0","0","9","0","9","0","0","0","9","9","9","0","9","None","None","None","None","None","None","Thu Jul 23 18:03:11 2026","The main experiment item","False","None","experiment.osexp","C:\Users\sschu\Documents\GitHub\ET_course_project_gender-bias\experiment","False","mono","False","18","no","white","no","yes","1080","4","None","legacy","None","None","None","6","9","9","C:\Users\sschu\Documents\GitHub\ET_course_project_gender-bias\experiment\subject-3.csv","None","legacy","an_found","Neonatal Nightingale","4.1.9","None","None","2","0","right","NA","right","None","NA","3605.0","NA","3605","NA","None","None","None","None","None","None","None","None","None","2","legacy","1","None","Bei einem Networking-Event stehen wirtschaftspolitische und gesellschaftliche Fragestellungen im Mittelpunkt der Diskussion. Die <RN>Unternehmer</RN> brauchen weniger bürokratische Hürden und sprechen über Verbesserungen, doch diese <AN>Männer</AN> fordern weitere steuerliche Entlastungen. Die Folgen dieser Positionen bleiben umstritten.","1","1024","2","48000","-16","None","None","None","None","None","None","None","experiment","3","odd","None","None","None","NA","2845","2846","10957","14563","14782","14605","14782","10956","10956","NA","NA","NA","NA","14605","14782","None","Experiment","0","0","0","1920","None","None","None","None"
"<AN>Männer</AN>","C3","<RN>Expertinnen</RN>","undefined","undefined","None","None","None","None","None","None","None","None","None","undefined","undefined","#232323","None","legacy","None","None","legacy","legacy","undefined","undefined","None","0","0","0","0","0","10","0","10","0","0","0","10","10","10","0","10","None","None","None","None","None","None","Thu Jul 23 18:03:11 2026","The main experiment item","False","None","experiment.osexp","C:\Users\sschu\Documents\GitHub\ET_course_project_gender-bias\experiment","False","mono","False","18","no","white","no","yes","1080","14","None","legacy","None","None","None","2","10","10","C:\Users\sschu\Documents\GitHub\ET_course_project_gender-bias\experiment\subject-3.csv","None","legacy","an_found","Neonatal Nightingale","4.1.9","None","None","2","0","right","NA","right","None","NA","3605.0","NA","3605","NA","None","None","None","None","None","None","None","None","None","2","legacy","1","None","Auf einer öffentlichen Veranstaltung stehen Investitionen und langfristige gesellschaftliche Entwicklungen zur Diskussion. Die <RN>Fachfrauen</RN> unterstützen höhere Investitionen und langfristige Entwicklungen, doch diese <AN>Männer</AN> kritisieren die Umsetzung. Die politischen Folgen werden unterschiedlich bewertet.","1","1024","2","48000","-16","None","None","None","None","None","None","None","experiment","3","odd","None","None","None","NA","2845","2846","10957","14563","14799","14605","14799","10956","10956","NA","NA","NA","NA","14605","14799","None","Experiment","0","0","0","1920","None","None","None","None"
"<AN>Frauen</AN>","C6","<RN>Arbeitnehmer*innen</RN>","undefined","undefined","None","None","None","None","None","None","None","None","None","undefined","undefined","#232323","None","legacy","None","None","legacy","legacy","undefined","undefined","None","0","0","0","0","0","11","0","11","0","0","0","11","11","11","0","11","None","None","None","None","None","None","Thu Jul 23 18:03:11 2026","The main experiment item","False","None","experiment.osexp","C:\Users\sschu\Documents\GitHub\ET_course_project_gender-bias\experiment","False","mono","False","18","no","white","no","yes","1080","5","None","legacy","None","None","None","2","11","11","C:\Users\sschu\Documents\GitHub\ET_course_project_gender-bias\experiment\subject-3.csv","None","legacy","an_found","Neonatal Nightingale","4.1.9","None","None","2","0","right","NA","right","None","NA","3605.0","NA","3605","NA","None","None","None","None","None","None","None","None","None","2","legacy","1","None","Im Rahmen einer Geschäftsveranstaltung findet derzeit ein Austausch über Arbeitsbedingungen und gesellschaftliche Entwicklungen statt. Die <RN>Arbeitnehmer*innen</RN> erwarten höhere Gehälter und klimatisierte Arbeitsplätze, aber diese <AN>Männer</AN> wollen auch weniger arbeiten. Die Frage nach den Konsequenzen bleibt offen.","1","1024","2","48000","-16","None","None","None","None","None","None","None","experiment","3","odd","None","None","None","NA","2845","2846","10957","14563","14816","14605","14816","10956","10956","NA","NA","NA","NA","14605","14816","None","Experiment","0","0","0","1920","None","None","None","None"
"<AN>Männer</AN>","C3","<RN>Aktivistinnen</RN>","undefined","undefined","None","None","None","None","None","None","None","None","None","undefined","undefined","#232323","None","legacy","None","None","legacy","legacy","undefined","undefined","None","0","0","0","0","0","12","0","12","0","0","0","12","12","12","0","12","None","None","None","None","None","None","Thu Jul 23 18:03:11 2026","The main experiment item","False","None","experiment.osexp","C:\Users\sschu\Documents\GitHub\ET_course_project_gender-bias\experiment","False","mono","False","18","no","white","no","yes","1080","11","None","legacy","None","None","None","5","12","12","C:\Users\sschu\Documents\GitHub\ET_course_project_gender-bias\experiment\subject-3.csv","None","legacy","an_found","Neonatal Nightingale","4.1.9","None","None","2","0","right","NA","right","None","NA","3605.0","NA","3605","NA","None","None","None","None","None","None","None","None","None","2","legacy","1","None","Auf einer öffentlichen Veranstaltung werden aktuelle wohnungs- und gesellschaftspolitische Themen diskutiert. Die <RN>Aktivist*innen</RN> fordern mehr bezahlbaren Wohnraum in Stuttgart und diskutieren faire Lösungsansätze, doch diese <AN>Frauen</AN> sehen die Verantwortung stärker beim Bund. Die Auswirkungen der Entscheidung werden noch geprüft.","1","1024","2","48000","-16","None","None","None","None","None","None","None","experiment","3","odd","None","None","None","NA","2845","2846","10957","14563","14834","14605","14834","10956","10956","NA","NA","NA","NA","14605","14834","None","Experiment","0","0","0","1920","None","None","None","None"
"<AN>Frauen</AN>","C6","<RN>Professor*innen</RN>","undefined","undefined","None","None","None","None","None","None","None","None","None","undefined","undefined","#232323","None","legacy","None","None","legacy","legacy","undefined","undefined","None","0","0","0","0","0","13","0","13","0","0","0","13","13","13","0","13","None","None","None","None","None","None","Thu Jul 23 18:03:11 2026","The main experiment item","False","None","experiment.osexp","C:\Users\sschu\Documents\GitHub\ET_course_project_gender-bias\experiment","False","mono","False","18","no","white","no","yes","1080","15","None","legacy","None","None","None","4","13","13","C:\Users\sschu\Documents\GitHub\ET_course_project_gender-bias\experiment\subject-3.csv","None","legacy","an_found","Neonatal Nightingale","4.1.9","None","None","2","0","right","NA","right","None","NA","3605.0","NA","3605","NA","None","None","None","None","None","None","None","None","None","2","legacy","1","None","Im Rahmen einer öffentlichen Veranstaltung wird über die Zukunft der Hochschulen und die Forschungsförderung diskutiert. Die <RN>Professorinnen</RN> diskutieren über die Zukunft der Hochschulen und setzen sich für mehr Forschungsgelder ein, doch diese <AN>Männer</AN> lehnen die Vorschläge ab. Die nächsten Schritte werden derzeit kontrovers diskutiert.","1","1024","2","48000","-16","None","None","None","None","None","None","None","experiment","3","odd","None","None","None","NA","2845","2846","10957","14563","14852","14605","14852","10956","10956","NA","NA","NA","NA","14605","14852","None","Experiment","0","0","0","1920","None","None","None","None"
"<AN>Frauen</AN>","C6","<RN>Aktivist*innen</RN>","undefined","undefined","None","None","None","None","None","None","None","None","None","undefined","undefined","#232323","None","legacy","None","None","legacy","legacy","undefined","undefined","None","0","0","0","0","0","14","0","14","0","0","0","14","14","14","0","14","None","None","None","None","None","None","Thu Jul 23 18:03:11 2026","The main experiment item","False","None","experiment.osexp","C:\Users\sschu\Documents\GitHub\ET_course_project_gender-bias\experiment","False","mono","False","18","no","white","no","yes","1080","11","None","legacy","None","None","None","2","14","14","C:\Users\sschu\Documents\GitHub\ET_course_project_gender-bias\experiment\subject-3.csv","None","legacy","an_found","Neonatal Nightingale","4.1.9","None","None","2","0","right","NA","right","None","NA","3605.0","NA","3605","NA","None","None","None","None","None","None","None","None","None","2","legacy","1","None","Auf einer öffentlichen Veranstaltung werden aktuelle wohnungs- und gesellschaftspolitische Themen diskutiert. Die <RN>Aktivist*innen</RN> fordern mehr bezahlbaren Wohnraum in Stuttgart und diskutieren faire Lösungsansätze, doch diese <AN>Frauen</AN> sehen die Verantwortung stärker beim Bund. Die Auswirkungen der Entscheidung werden noch geprüft.","1","1024","2","48000","-16","None","None","None","None","None","None","None","experiment","3","odd","None","None","None","NA","2845","2846","10957","14563","14872","14605","14872","10956","10956","NA","NA","NA","NA","14605","14872","None","Experiment","0","0","0","1920","None","None","None","None"
"<AN>Männer</AN>","C3","<RN>Dozentinnen</RN>","undefined","undefined","True","53","4","<AN>Männer</AN>","135","-339.0","-204.0","61.0","114.0","undefined","undefined","#232323","1620","legacy","True","an","legacy","legacy","undefined","undefined","undefined","0","0","0","0","0","15","0","15","0","0","0","15","15","15","0","15","50","-810.0","-270.5","5","795.0","98.8243391073272","Thu Jul 23 18:03:11 2026","The main experiment item","False","Auf einer schulischen Tagung werden aktuelle Kontroversen rund um Vorlesungsführung und Leistungsbewertung diskutiert. Die <RN>Dozentinnen</RN> fordern erhöhte Leistungsorientierung und strengere Notenvergabe im Lehrplan, doch diese <AN>Männer</AN> stoßen dabei auf Gegendruck von Eltern. Die Debatte über das Thema hält weiter an.","experiment.osexp","C:\Users\sschu\Documents\GitHub\ET_course_project_gender-bias\experiment","False","mono","False","39","no","white","no","yes","1080","9","right","legacy","178.0","3.0","117","1","15","15","C:\Users\sschu\Documents\GitHub\ET_course_project_gender-bias\experiment\subject-3.csv","150","legacy","an_found","Neonatal Nightingale","4.1.9","69.0","178.0","2","0","right","NA","right","right","right","410.0","NA","3605","410","True","53","2","<RN>Dozentinnen</RN>","249","488.0","737.0","-173.0","-120.0","2","legacy","1","Auf einer schulischen Tagung werden aktuelle Kontroversen rund um Vorlesungsführung und Leistungsbewertung diskutiert. Die <RN>Dozent*innen</RN> fordern erhöhte Leistungsorientierung und strengere Notenvergabe im Lehrplan, doch diese <AN>Männer</AN> stoßen dabei auf Gegendruck von Eltern. Die Debatte über das Thema hält weiter an.","Auf einer schulischen Tagung werden aktuelle Kontroversen rund um Vorlesungsführung und Leistungsbewertung diskutiert. Die <RN>Dozent*innen</RN> fordern erhöhte Leistungsorientierung und strengere Notenvergabe im Lehrplan, doch diese <AN>Männer</AN> stoßen dabei auf Gegendruck von Eltern. Die Debatte über das Thema hält weiter an.","0","1024","2","48000","-16","53","4","135","-204.0","-69.0","61.0","114.0","experiment","3","odd","14897.0","-810.0","-290.0","NA","2845","2846","10957","14563","14890","14605","19720","10956","10956","NA","19678","19267","14890","14605","14890","19265","Experiment","0","0","0","1920","an.","53","25","59"
"<AN>Frauen</AN>","C6","<RN>Expert*innen</RN>","undefined","undefined","True","53","4","<AN>Männer</AN>","135","-339.0","-204.0","61.0","114.0","undefined","undefined","#232323","1620","legacy","True","an","legacy","legacy","undefined","undefined","undefined","0","0","0","0","0","16","0","16","0","0","0","16","16","16","0","16","50","-810.0","-270.5","5","795.0","98.8243391073272","Thu Jul 23 18:03:11 2026","The main experiment item","False","Auf einer schulischen Tagung werden aktuelle Kontroversen rund um Vorlesungsführung und Leistungsbewertung diskutiert. Die <RN>Dozentinnen</RN> fordern erhöhte Leistungsorientierung und strengere Notenvergabe im Lehrplan, doch diese <AN>Männer</AN> stoßen dabei auf Gegendruck von Eltern. Die Debatte über das Thema hält weiter an.","experiment.osexp","C:\Users\sschu\Documents\GitHub\ET_course_project_gender-bias\experiment","False","mono","False","39","no","white","no","yes","1080","7","right","legacy","178.0","3.0","117","6","16","16","C:\Users\sschu\Documents\GitHub\ET_course_project_gender-bias\experiment\subject-3.csv","150","legacy","an_found","Neonatal Nightingale","4.1.9","69.0","178.0","2","0","right","NA","right","right","right","410.0","NA","3605","410","True","53","2","<RN>Dozentinnen</RN>","249","488.0","737.0","-173.0","-120.0","2","legacy","1","Auf einer schulischen Tagung werden aktuelle Kontroversen rund um Vorlesungsführung und Leistungsbewertung diskutiert. Die <RN>Dozent*innen</RN> fordern erhöhte Leistungsorientierung und strengere Notenvergabe im Lehrplan, doch diese <AN>Männer</AN> stoßen dabei auf Gegendruck von Eltern. Die Debatte über das Thema hält weiter an.","Beim Sommerfest eines Unternehmens wird über wirtschaftliche Entwicklungen und gesellschaftliche Herausforderungen diskutiert. Die <RN>Fachleute</RN> sehen große Herausforderungen im nächsten Geschäftsjahr, dennoch bleiben diese <AN>Männer</AN> optimistisch. Die unternehmerischen Folgen werden unterschiedlich bewertet.","1","1024","2","48000","-16","53","4","135","-204.0","-69.0","61.0","114.0","experiment","3","odd","14897.0","-810.0","-290.0","NA","2845","2846","10957","14563","19746","14605","19746","10956","10956","NA","19678","19267","14890","14605","19745","19265","Experiment","0","0","0","1920","an.","53","25","59"
"<AN>Männer</AN>","C5","<RN>Student*innen</RN>","undefined","undefined","True","53","4","<AN>Männer</AN>","135","-339.0","-204.0","61.0","114.0","undefined","undefined","#232323","1620","legacy","True","an","legacy","legacy","undefined","undefined","undefined","0","0","0","0","0","17","0","17","0","0","0","17","17","17","0","17","50","-810.0","-270.5","5","795.0","98.8243391073272","Thu Jul 23 18:03:11 2026","The main experiment item","False","Auf einer schulischen Tagung werden aktuelle Kontroversen rund um Vorlesungsführung und Leistungsbewertung diskutiert. Die <RN>Dozentinnen</RN> fordern erhöhte Leistungsorientierung und strengere Notenvergabe im Lehrplan, doch diese <AN>Männer</AN> stoßen dabei auf Gegendruck von Eltern. Die Debatte über das Thema hält weiter an.","experiment.osexp","C:\Users\sschu\Documents\GitHub\ET_course_project_gender-bias\experiment","False","mono","False","39","no","white","no","yes","1080","1","right","legacy","178.0","3.0","117","5","17","17","C:\Users\sschu\Documents\GitHub\ET_course_project_gender-bias\experiment\subject-3.csv","150","legacy","an_found","Neonatal Nightingale","4.1.9","69.0","178.0","2","0","right","NA","right","right","right","410.0","NA","3605","410","True","53","2","<RN>Dozentinnen</RN>","249","488.0","737.0","-173.0","-120.0","2","legacy","1","Auf einer schulischen Tagung werden aktuelle Kontroversen rund um Vorlesungsführung und Leistungsbewertung diskutiert. Die <RN>Dozent*innen</RN> fordern erhöhte Leistungsorientierung und strengere Notenvergabe im Lehrplan, doch diese <AN>Männer</AN> stoßen dabei auf Gegendruck von Eltern. Die Debatte über das Thema hält weiter an.","Bei einer Podiumsdiskussion an der Universität wird über aktuelle gesellschaftliche Themen gesprochen. Die <RN>Studenten</RN> müssten wieder stärker leistungsorientiert gefördert werden, doch die Mehrheit dieser dort teilnehmenden <AN>Frauen</AN> kritisiert die neuen Anforderungen. Die weitere Entwicklung bleibt Gegenstand öffentlicher Debatten.","1","1024","2","48000","-16","53","4","135","-204.0","-69.0","61.0","114.0","experiment","3","odd","14897.0","-810.0","-290.0","NA","2845","2846","10957","14563","19763","14605","19763","10956","10956","NA","19678","19267","14890","14605","19763","19265","Experiment","0","0","0","1920","an.","53","25","59"
"<AN>Männer</AN>","C5","<RN>Arbeitnehmer*innen</RN>","undefined","undefined","True","53","4","<AN>Männer</AN>","135","-220.0","-85.0","61.0","114.0","undefined","undefined","#232323","1620","legacy","True","offen","legacy","legacy","undefined","undefined","undefined","0","0","0","0","0","18","0","18","0","0","0","18","18","18","0","18","50","-810.0","-270.5","5","792.0","99.9562404254982","Thu Jul 23 18:03:11 2026","The main experiment item","False","Im Rahmen einer Geschäftsveranstaltung findet derzeit ein Austausch über Arbeitsbedingungen und gesellschaftliche Entwicklungen statt. Die <RN>Arbeitnehmer*innen</RN> erwarten höhere Gehälter und klimatisierte Arbeitsplätze, aber diese <AN>Männer</AN> wollen auch weniger arbeiten. Die Frage nach den Konsequenzen bleibt offen.","experiment.osexp","C:\Users\sschu\Documents\GitHub\ET_course_project_gender-bias\experiment","False","mono","False","39","no","white","no","yes","1080","5","right","legacy","178.0","3.0","117","1","18","18","C:\Users\sschu\Documents\GitHub\ET_course_project_gender-bias\experiment\subject-3.csv","150","legacy","an_found","Neonatal Nightingale","4.1.9","136.0","178.0","2","0","right","NA","right","right","right","200.0","NA","3605","200","True","53","3","<RN>Arbeitnehmer*innen</RN>","412","-810.0","-398.0","-56.0","-3.0","2","legacy","1","Im Rahmen einer Geschäftsveranstaltung findet derzeit ein Austausch über Arbeitsbedingungen und gesellschaftliche Entwicklungen statt. Die <RN>Arbeitnehmer*innen</RN> erwarten höhere Gehälter und klimatisierte Arbeitsplätze, aber diese <AN>Männer</AN> wollen auch weniger arbeiten. Die Frage nach den Konsequenzen bleibt offen.","Im Rahmen einer Geschäftsveranstaltung findet derzeit ein Austausch über Arbeitsbedingungen und gesellschaftliche Entwicklungen statt. Die <RN>Arbeitnehmer*innen</RN> erwarten höhere Gehälter und klimatisierte Arbeitsplätze, aber diese <AN>Männer</AN> wollen auch weniger arbeiten. Die Frage nach den Konsequenzen bleibt offen.","0","1024","2","48000","-16","53","4","135","-85.0","50.0","61.0","114.0","experiment","3","odd","19786.0","-810.0","-290.0","NA","2845","2846","10957","14563","19780","14605","22407","10956","10956","NA","22365","22164","19780","14605","19780","22162","Experiment","0","0","0","1920","offen.","53","25","129"
"<AN>Frauen</AN>","C4","<RN>Einwohnerinnen</RN>","undefined","undefined","True","53","4","<AN>Männer</AN>","135","-220.0","-85.0","61.0","114.0","undefined","undefined","#232323","1620","legacy","True","offen","legacy","legacy","undefined","undefined","undefined","0","0","0","0","0","19","0","19","0","0","0","19","19","19","0","19","50","-810.0","-270.5","5","792.0","99.9562404254982","Thu Jul 23 18:03:11 2026","The main experiment item","False","Im Rahmen einer Geschäftsveranstaltung findet derzeit ein Austausch über Arbeitsbedingungen und gesellschaftliche Entwicklungen statt. Die <RN>Arbeitnehmer*innen</RN> erwarten höhere Gehälter und klimatisierte Arbeitsplätze, aber diese <AN>Männer</AN> wollen auch weniger arbeiten. Die Frage nach den Konsequenzen bleibt offen.","experiment.osexp","C:\Users\sschu\Documents\GitHub\ET_course_project_gender-bias\experiment","False","mono","False","39","no","white","no","yes","1080","8","right","legacy","178.0","3.0","117","3","19","19","C:\Users\sschu\Documents\GitHub\ET_course_project_gender-bias\experiment\subject-3.csv","150","legacy","an_found","Neonatal Nightingale","4.1.9","136.0","178.0","2","0","right","NA","right","right","right","200.0","NA","3605","200","True","53","3","<RN>Arbeitnehmer*innen</RN>","412","-810.0","-398.0","-56.0","-3.0","2","legacy","1","Im Rahmen einer Geschäftsveranstaltung findet derzeit ein Austausch über Arbeitsbedingungen und gesellschaftliche Entwicklungen statt. Die <RN>Arbeitnehmer*innen</RN> erwarten höhere Gehälter und klimatisierte Arbeitsplätze, aber diese <AN>Männer</AN> wollen auch weniger arbeiten. Die Frage nach den Konsequenzen bleibt offen.","Im Rahmen einer öffentlichen Veranstaltung wird derzeit über Fragen der inneren Sicherheit und gesellschaftliche Entwicklungen gesprochen. Die <RN>Bürger</RN> diskutieren über Fragen der inneren Sicherheit bezüglich der aktuellen Krise, doch diese <AN>Männer</AN> fordern härtere Maßnahmen. Die weiteren Maßnahmen stoßen auf geteilte Reaktionen.","1","1024","2","48000","-16","53","4","135","-85.0","50.0","61.0","114.0","experiment","3","odd","19786.0","-810.0","-290.0","NA","2845","2846","10957","14563","22423","14605","22423","10956","10956","NA","22365","22164","19780","14605","22423","22162","Experiment","0","0","0","1920","offen.","53","25","129"
"<AN>Frauen</AN>","C6","<RN>Ingenieur*innen</RN>","undefined","undefined","True","53","4","<AN>Männer</AN>","135","-220.0","-85.0","61.0","114.0","undefined","undefined","#232323","1620","legacy","True","offen","legacy","legacy","undefined","undefined","undefined","0","0","0","0","0","20","0","20","0","0","0","20","20","20","0","20","50","-810.0","-270.5","5","792.0","99.9562404254982","Thu Jul 23 18:03:11 2026","The main experiment item","False","Im Rahmen einer Geschäftsveranstaltung findet derzeit ein Austausch über Arbeitsbedingungen und gesellschaftliche Entwicklungen statt. Die <RN>Arbeitnehmer*innen</RN> erwarten höhere Gehälter und klimatisierte Arbeitsplätze, aber diese <AN>Männer</AN> wollen auch weniger arbeiten. Die Frage nach den Konsequenzen bleibt offen.","experiment.osexp","C:\Users\sschu\Documents\GitHub\ET_course_project_gender-bias\experiment","False","mono","False","39","no","white","no","yes","1080","17","right","legacy","178.0","3.0","117","2","20","20","C:\Users\sschu\Documents\GitHub\ET_course_project_gender-bias\experiment\subject-3.csv","150","legacy","an_found","Neonatal Nightingale","4.1.9","136.0","178.0","2","0","right","NA","right","right","right","200.0","NA","3605","200","True","53","3","<RN>Arbeitnehmer*innen</RN>","412","-810.0","-398.0","-56.0","-3.0","2","legacy","1","Im Rahmen einer Geschäftsveranstaltung findet derzeit ein Austausch über Arbeitsbedingungen und gesellschaftliche Entwicklungen statt. Die <RN>Arbeitnehmer*innen</RN> erwarten höhere Gehälter und klimatisierte Arbeitsplätze, aber diese <AN>Männer</AN> wollen auch weniger arbeiten. Die Frage nach den Konsequenzen bleibt offen.","Im Rahmen einer städtischen Planungsrunde wird über die zukünftige Mobilität und den Ausbau des Nahverkehrs diskutiert. Die <RN>Ingenieurinnen</RN> diskutieren über Verkehrskonzepte und setzen sich für den Ausbau des ÖPNV ein, doch diese <AN>Männer</AN> lehnen die Vorschläge ab. Die nächsten Schritte werden derzeit kontrovers diskutiert.","1","1024","2","48000","-16","53","4","135","-85.0","50.0","61.0","114.0","experiment","3","odd","19786.0","-810.0","-290.0","NA","2845","2846","10957","14563","22440","14605","22440","10956","10956","NA","22365","22164","19780","14605","22440","22162","Experiment","0","0","0","1920","offen.","53","25","129"
"<AN>Frauen</AN>","C2","<RN>Einwohner</RN>","undefined","undefined","True","53","4","<AN>Frauen</AN>","132","-179.0","-47.0","61.0","114.0","undefined","undefined","#232323","1620","legacy","True","Reaktionen","legacy","legacy","undefined","undefined","undefined","0","0","0","0","0","21","0","21","0","0","0","21","21","21","0","21","50","-810.0","-270.5","5","893.0","1.118033988749895","Thu Jul 23 18:03:11 2026","The main experiment item","False","Im Rahmen einer öffentlichen Veranstaltung wird derzeit über Fragen der inneren Sicherheit und gesellschaftliche Entwicklungen gesprochen. Die <RN>Einwohner</RN> diskutieren über Fragen der inneren Sicherheit bezüglich der aktuellen Krise, doch diese <AN>Frauen</AN> fordern härtere Maßnahmen. Die weiteren Maßnahmen stoßen auf geteilte Reaktionen.","experiment.osexp","C:\Users\sschu\Documents\GitHub\ET_course_project_gender-bias\experiment","False","mono","False","39","no","white","no","yes","1080","8","right","legacy","178.0","3.0","117","1","21","21","C:\Users\sschu\Documents\GitHub\ET_course_project_gender-bias\experiment\subject-3.csv","150","legacy","an_found","Neonatal Nightingale","4.1.9","350.0","178.0","2","0","right","NA","right","right","right","216.0","NA","3605","216","True","53","3","<RN>Einwohner</RN>","202","-810.0","-608.0","-56.0","-3.0","2","legacy","1","Im Rahmen einer öffentlichen Veranstaltung wird derzeit über Fragen der inneren Sicherheit und gesellschaftliche Entwicklungen gesprochen. Die <RN>Bürger</RN> diskutieren über Fragen der inneren Sicherheit bezüglich der aktuellen Krise, doch diese <AN>Männer</AN> fordern härtere Maßnahmen. Die weiteren Maßnahmen stoßen auf geteilte Reaktionen.","Im Rahmen einer öffentlichen Veranstaltung wird derzeit über Fragen der inneren Sicherheit und gesellschaftliche Entwicklungen gesprochen. Die <RN>Bürger</RN> diskutieren über Fragen der inneren Sicherheit bezüglich der aktuellen Krise, doch diese <AN>Männer</AN> fordern härtere Maßnahmen. Die weiteren Maßnahmen stoßen auf geteilte Reaktionen.","0","1024","2","48000","-16","53","4","132","-47.0","85.0","61.0","114.0","experiment","3","odd","22461.0","-810.0","-290.0","NA","2845","2846","10957","14563","22457","14605","25176","10956","10956","NA","25134","24917","22457","14605","22456","24915","Experiment","0","0","0","1920","Reaktionen.","53","25","242"
"<AN>Männer</AN>","C3","<RN>Professorinnen</RN>","undefined","undefined","True","53","4","<AN>Männer</AN>","135","-65.0","70.0","61.0","114.0","undefined","undefined","#232323","1620","legacy","True","diskutiert","legacy","legacy","undefined","undefined","undefined","0","0","0","0","0","22","0","22","0","0","0","22","22","22","0","22","50","-810.0","-270.5","5","1003.0","1.118033988749895","Thu Jul 23 18:03:11 2026","The main experiment item","False","Im Rahmen einer öffentlichen Veranstaltung wird über die Zukunft der Hochschulen und die Forschungsförderung diskutiert. Die <RN>Professorinnen</RN> diskutieren über die Zukunft der Hochschulen und setzen sich für mehr Forschungsgelder ein, doch diese <AN>Männer</AN> lehnen die Vorschläge ab. Die nächsten Schritte werden derzeit kontrovers diskutiert.","experiment.osexp","C:\Users\sschu\Documents\GitHub\ET_course_project_gender-bias\experiment","False","mono","False","39","no","white","no","yes","1080","15","right","legacy","178.0","3.0","117","1","22","22","C:\Users\sschu\Documents\GitHub\ET_course_project_gender-bias\experiment\subject-3.csv","150","legacy","an_found","Neonatal Nightingale","4.1.9","461.0","178.0","2","0","right","NA","right","right","right","230.0","NA","3605","230","True","53","2","<RN>Professorinnen</RN>","317","461.0","778.0","-173.0","-120.0","2","legacy","1","Im Rahmen einer öffentlichen Veranstaltung wird über die Zukunft der Hochschulen und die Forschungsförderung diskutiert. Die <RN>Professorinnen</RN> diskutieren über die Zukunft der Hochschulen und setzen sich für mehr Forschungsgelder ein, doch diese <AN>Männer</AN> lehnen die Vorschläge ab. Die nächsten Schritte werden derzeit kontrovers diskutiert.","Im Rahmen einer öffentlichen Veranstaltung wird über die Zukunft der Hochschulen und die Forschungsförderung diskutiert. Die <RN>Professorinnen</RN> diskutieren über die Zukunft der Hochschulen und setzen sich für mehr Forschungsgelder ein, doch diese <AN>Männer</AN> lehnen die Vorschläge ab. Die nächsten Schritte werden derzeit kontrovers diskutiert.","0","1024","2","48000","-16","53","4","135","70.0","205.0","61.0","114.0","experiment","3","odd","25200.0","-810.0","-290.0","NA","2845","2846","10957","14563","25196","14605","27766","10956","10956","NA","27724","27493","25196","14605","25196","27491","Experiment","0","0","0","1920","diskutiert.","53","25","243"
"<AN>Frauen</AN>","C2","<RN>Pfleger</RN>","undefined","undefined","True","53","4","<AN>Frauen</AN>","132","-222.0","-90.0","61.0","114.0","undefined","undefined","#232323","1620","legacy","True","diskutiert","legacy","legacy","undefined","undefined","undefined","0","0","0","0","0","23","0","23","0","0","0","23","23","23","0","23","50","-810.0","-270.5","6","249.0","1.118033988749895","Thu Jul 23 18:03:11 2026","The main experiment item","False","Im Rahmen einer Gesprächsrunde im Gesundheitswesen wird derzeit über aktuelle gesellschaftliche Herausforderungen diskutiert. Die <RN>Pfleger</RN> verdienen bessere Arbeitsbedingungen und benötigen langfristig mehr Unterstützung, doch diese <AN>Frauen</AN> fühlen sich politisch nicht ausreichend unterstützt. Die nächsten Schritte werden derzeit kontrovers diskutiert.","experiment.osexp","C:\Users\sschu\Documents\GitHub\ET_course_project_gender-bias\experiment","False","mono","False","39","no","white","no","yes","1080","2","right","legacy","295.0","3.0","117","1","23","23","C:\Users\sschu\Documents\GitHub\ET_course_project_gender-bias\experiment\subject-3.csv","150","legacy","an_found","Neonatal Nightingale","4.1.9","-293.0","295.0","2","0","right","NA","right","right","right","225.0","NA","3605","225","True","53","2","<RN>Pfleger</RN>","156","581.0","737.0","-173.0","-120.0","2","legacy","1","Im Rahmen einer Gesprächsrunde im Gesundheitswesen wird derzeit über aktuelle gesellschaftliche Herausforderungen diskutiert. Die <RN>Pflegekräfte</RN> verdienen bessere Arbeitsbedingungen und benötigen langfristig mehr Unterstützung, doch diese <AN>Männer</AN> fühlen sich politisch nicht ausreichend unterstützt. Die nächsten Schritte werden derzeit kontrovers diskutiert.","Im Rahmen einer Gesprächsrunde im Gesundheitswesen wird derzeit über aktuelle gesellschaftliche Herausforderungen diskutiert. Die <RN>Pflegekräfte</RN> verdienen bessere Arbeitsbedingungen und benötigen langfristig mehr Unterstützung, doch diese <AN>Männer</AN> fühlen sich politisch nicht ausreichend unterstützt. Die nächsten Schritte werden derzeit kontrovers diskutiert.","0","1024","2","48000","-16","53","4","132","-90.0","42.0","61.0","114.0","experiment","3","odd","27791.0","-810.0","-290.0","NA","2845","2846","10957","14563","27786","14605","30069","10956","10956","NA","30027","29801","27786","14605","27786","29799","Experiment","0","0","0","1920","diskutiert.","53","25","243"
"<AN>Männer</AN>","C5","<RN>Aktivist*innen</RN>","undefined","undefined","True","53","4","<AN>Männer</AN>","135","-201.0","-66.0","61.0","114.0","undefined","undefined","#232323","1620","legacy","True","geprüft","legacy","legacy","undefined","undefined","undefined","0","0","0","0","0","24","0","24","0","0","0","24","24","24","0","24","50","-810.0","-270.5","5","1182.0","1.118033988749895","Thu Jul 23 18:03:11 2026","The main experiment item","False","Auf einer öffentlichen Veranstaltung werden aktuelle wohnungs- und gesellschaftspolitische Themen diskutiert. Die <RN>Aktivist*innen</RN> fordern mehr bezahlbaren Wohnraum in Stuttgart und diskutieren faire Lösungsansätze, doch diese <AN>Männer</AN> sehen die Verantwortung stärker beim Bund. Die Auswirkungen der Entscheidung werden noch geprüft.","experiment.osexp","C:\Users\sschu\Documents\GitHub\ET_course_project_gender-bias\experiment","False","mono","False","39","no","white","no","yes","1080","11","right","legacy","178.0","3.0","117","1","24","24","C:\Users\sschu\Documents\GitHub\ET_course_project_gender-bias\experiment\subject-3.csv","150","legacy","an_found","Neonatal Nightingale","4.1.9","572.0","178.0","2","0","right","NA","right","right","right","208.0","NA","3605","208","True","53","2","<RN>Aktivist*innen</RN>","320","261.0","581.0","-173.0","-120.0","2","legacy","1","Auf einer öffentlichen Veranstaltung werden aktuelle wohnungs- und gesellschaftspolitische Themen diskutiert. Die <RN>Aktivist*innen</RN> fordern mehr bezahlbaren Wohnraum in Stuttgart und diskutieren faire Lösungsansätze, doch diese <AN>Frauen</AN> sehen die Verantwortung stärker beim Bund. Die Auswirkungen der Entscheidung werden noch geprüft.","Auf einer öffentlichen Veranstaltung werden aktuelle wohnungs- und gesellschaftspolitische Themen diskutiert. Die <RN>Aktivist*innen</RN> fordern mehr bezahlbaren Wohnraum in Stuttgart und diskutieren faire Lösungsansätze, doch diese <AN>Frauen</AN> sehen die Verantwortung stärker beim Bund. Die Auswirkungen der Entscheidung werden noch geprüft.","0","1024","2","48000","-16","53","4","135","-66.0","69.0","61.0","114.0","experiment","3","odd","30091.0","-810.0","-290.0","NA","2845","2846","10957","14563","30086","14605","32248","10956","10956","NA","32206","31997","30086","14605","30086","31995","Experiment","0","0","0","1920","geprüft.","53","25","175"
"<AN>Männer</AN>","C1","<RN>Experten</RN>","undefined","undefined","True","53","4","<AN>Männer</AN>","135","-201.0","-66.0","61.0","114.0","undefined","undefined","#232323","1620","legacy","True","geprüft","legacy","legacy","undefined","undefined","undefined","0","0","0","0","0","25","0","25","0","0","0","25","25","25","0","25","50","-810.0","-270.5","5","1182.0","1.118033988749895","Thu Jul 23 18:03:11 2026","The main experiment item","False","Auf einer öffentlichen Veranstaltung werden aktuelle wohnungs- und gesellschaftspolitische Themen diskutiert. Die <RN>Aktivist*innen</RN> fordern mehr bezahlbaren Wohnraum in Stuttgart und diskutieren faire Lösungsansätze, doch diese <AN>Männer</AN> sehen die Verantwortung stärker beim Bund. Die Auswirkungen der Entscheidung werden noch geprüft.","experiment.osexp","C:\Users\sschu\Documents\GitHub\ET_course_project_gender-bias\experiment","False","mono","False","39","no","white","no","yes","1080","14","right","legacy","178.0","3.0","117","6","25","25","C:\Users\sschu\Documents\GitHub\ET_course_project_gender-bias\experiment\subject-3.csv","150","legacy","an_found","Neonatal Nightingale","4.1.9","572.0","178.0","2","0","right","NA","right","right","right","208.0","NA","3605","208","True","53","2","<RN>Aktivist*innen</RN>","320","261.0","581.0","-173.0","-120.0","2","legacy","1","Auf einer öffentlichen Veranstaltung werden aktuelle wohnungs- und gesellschaftspolitische Themen diskutiert. Die <RN>Aktivist*innen</RN> fordern mehr bezahlbaren Wohnraum in Stuttgart und diskutieren faire Lösungsansätze, doch diese <AN>Frauen</AN> sehen die Verantwortung stärker beim Bund. Die Auswirkungen der Entscheidung werden noch geprüft.","Auf einer öffentlichen Veranstaltung stehen Investitionen und langfristige gesellschaftliche Entwicklungen zur Diskussion. Die <RN>Fachfrauen</RN> unterstützen höhere Investitionen und langfristige Entwicklungen, doch diese <AN>Männer</AN> kritisieren die Umsetzung. Die politischen Folgen werden unterschiedlich bewertet.","1","1024","2","48000","-16","53","4","135","-66.0","69.0","61.0","114.0","experiment","3","odd","30091.0","-810.0","-290.0","NA","2845","2846","10957","14563","32264","14605","32264","10956","10956","NA","32206","31997","30086","14605","32264","31995","Experiment","0","0","0","1920","geprüft.","53","25","175"
"<AN>Frauen</AN>","C2","<RN>Einwohner</RN>","undefined","undefined","True","53","4","<AN>Männer</AN>","135","-201.0","-66.0","61.0","114.0","undefined","undefined","#232323","1620","legacy","True","geprüft","legacy","legacy","undefined","undefined","undefined","0","0","0","0","0","26","0","26","0","0","0","26","26","26","0","26","50","-810.0","-270.5","5","1182.0","1.118033988749895","Thu Jul 23 18:03:11 2026","The main experiment item","False","Auf einer öffentlichen Veranstaltung werden aktuelle wohnungs- und gesellschaftspolitische Themen diskutiert. Die <RN>Aktivist*innen</RN> fordern mehr bezahlbaren Wohnraum in Stuttgart und diskutieren faire Lösungsansätze, doch diese <AN>Männer</AN> sehen die Verantwortung stärker beim Bund. Die Auswirkungen der Entscheidung werden noch geprüft.","experiment.osexp","C:\Users\sschu\Documents\GitHub\ET_course_project_gender-bias\experiment","False","mono","False","39","no","white","no","yes","1080","13","right","legacy","178.0","3.0","117","2","26","26","C:\Users\sschu\Documents\GitHub\ET_course_project_gender-bias\experiment\subject-3.csv","150","legacy","an_found","Neonatal Nightingale","4.1.9","572.0","178.0","2","0","right","NA","right","right","right","208.0","NA","3605","208","True","53","2","<RN>Aktivist*innen</RN>","320","261.0","581.0","-173.0","-120.0","2","legacy","1","Auf einer öffentlichen Veranstaltung werden aktuelle wohnungs- und gesellschaftspolitische Themen diskutiert. Die <RN>Aktivist*innen</RN> fordern mehr bezahlbaren Wohnraum in Stuttgart und diskutieren faire Lösungsansätze, doch diese <AN>Frauen</AN> sehen die Verantwortung stärker beim Bund. Die Auswirkungen der Entscheidung werden noch geprüft.","Im Rahmen einer öffentlichen Veranstaltung wird über Sicherheit, gesellschaftlichen Zusammenhalt und politische Reformen gesprochen. Die <RN>Bürgerinnen</RN> wünschen sich mehr Sicherheit und verlässliche Perspektiven, doch diese Gruppe von <AN>Frauen</AN> sieht Reformbedarf im System. Die weitere Entwicklung bleibt Gegenstand öffentlicher Debatten.","1","1024","2","48000","-16","53","4","135","-66.0","69.0","61.0","114.0","experiment","3","odd","30091.0","-810.0","-290.0","NA","2845","2846","10957","14563","32281","14605","32281","10956","10956","NA","32206","31997","30086","14605","32281","31995","Experiment","0","0","0","1920","geprüft.","53","25","175"
"<AN>Frauen</AN>","C2","<RN>Experten</RN>","undefined","undefined","True","53","4","<AN>Männer</AN>","135","-201.0","-66.0","61.0","114.0","undefined","undefined","#232323","1620","legacy","True","geprüft","legacy","legacy","undefined","undefined","undefined","0","0","0","0","0","27","0","27","0","0","0","27","27","27","0","27","50","-810.0","-270.5","5","1182.0","1.118033988749895","Thu Jul 23 18:03:11 2026","The main experiment item","False","Auf einer öffentlichen Veranstaltung werden aktuelle wohnungs- und gesellschaftspolitische Themen diskutiert. Die <RN>Aktivist*innen</RN> fordern mehr bezahlbaren Wohnraum in Stuttgart und diskutieren faire Lösungsansätze, doch diese <AN>Männer</AN> sehen die Verantwortung stärker beim Bund. Die Auswirkungen der Entscheidung werden noch geprüft.","experiment.osexp","C:\Users\sschu\Documents\GitHub\ET_course_project_gender-bias\experiment","False","mono","False","39","no","white","no","yes","1080","7","right","legacy","178.0","3.0","117","2","27","27","C:\Users\sschu\Documents\GitHub\ET_course_project_gender-bias\experiment\subject-3.csv","150","legacy","an_found","Neonatal Nightingale","4.1.9","572.0","178.0","2","0","right","NA","right","right","right","208.0","NA","3605","208","True","53","2","<RN>Aktivist*innen</RN>","320","261.0","581.0","-173.0","-120.0","2","legacy","1","Auf einer öffentlichen Veranstaltung werden aktuelle wohnungs- und gesellschaftspolitische Themen diskutiert. Die <RN>Aktivist*innen</RN> fordern mehr bezahlbaren Wohnraum in Stuttgart und diskutieren faire Lösungsansätze, doch diese <AN>Frauen</AN> sehen die Verantwortung stärker beim Bund. Die Auswirkungen der Entscheidung werden noch geprüft.","Beim Sommerfest eines Unternehmens wird über wirtschaftliche Entwicklungen und gesellschaftliche Herausforderungen diskutiert. Die <RN>Fachleute</RN> sehen große Herausforderungen im nächsten Geschäftsjahr, dennoch bleiben diese <AN>Männer</AN> optimistisch. Die unternehmerischen Folgen werden unterschiedlich bewertet.","1","1024","2","48000","-16","53","4","135","-66.0","69.0","61.0","114.0","experiment","3","odd","30091.0","-810.0","-290.0","NA","2845","2846","10957","14563","32298","14605","32298","10956","10956","NA","32206","31997","30086","14605","32298","31995","Experiment","0","0","0","1920","geprüft.","53","25","175"
"<AN>Frauen</AN>","C2","<RN>Arbeitnehmer</RN>","undefined","undefined","True","53","4","<AN>Männer</AN>","135","-201.0","-66.0","61.0","114.0","undefined","undefined","#232323","1620","legacy","True","geprüft","legacy","legacy","undefined","undefined","undefined","0","0","0","0","0","28","0","28","0","0","0","28","28","28","0","28","50","-810.0","-270.5","5","1182.0","1.118033988749895","Thu Jul 23 18:03:11 2026","The main experiment item","False","Auf einer öffentlichen Veranstaltung werden aktuelle wohnungs- und gesellschaftspolitische Themen diskutiert. Die <RN>Aktivist*innen</RN> fordern mehr bezahlbaren Wohnraum in Stuttgart und diskutieren faire Lösungsansätze, doch diese <AN>Männer</AN> sehen die Verantwortung stärker beim Bund. Die Auswirkungen der Entscheidung werden noch geprüft.","experiment.osexp","C:\Users\sschu\Documents\GitHub\ET_course_project_gender-bias\experiment","False","mono","False","39","no","white","no","yes","1080","12","right","legacy","178.0","3.0","117","3","28","28","C:\Users\sschu\Documents\GitHub\ET_course_project_gender-bias\experiment\subject-3.csv","150","legacy","an_found","Neonatal Nightingale","4.1.9","572.0","178.0","2","0","right","NA","right","right","right","208.0","NA","3605","208","True","53","2","<RN>Aktivist*innen</RN>","320","261.0","581.0","-173.0","-120.0","2","legacy","1","Auf einer öffentlichen Veranstaltung werden aktuelle wohnungs- und gesellschaftspolitische Themen diskutiert. Die <RN>Aktivist*innen</RN> fordern mehr bezahlbaren Wohnraum in Stuttgart und diskutieren faire Lösungsansätze, doch diese <AN>Frauen</AN> sehen die Verantwortung stärker beim Bund. Die Auswirkungen der Entscheidung werden noch geprüft.","Auf einer Gewerkschaftsveranstaltung wird derzeit über Löhne, Arbeitsbedingungen und Arbeitnehmerrechte diskutiert. Die <RN>Beschäftigten</RN> fordern bessere Bezahlung und faire Arbeitsbedingungen, doch diese diskussionsfreudigen <AN>Frauen</AN> sehen vor allem strukturelle Probleme. Die kommenden Entwicklungen sind weiterhin Gegenstand von Diskussionen.","1","1024","2","48000","-16","53","4","135","-66.0","69.0","61.0","114.0","experiment","3","odd","30091.0","-810.0","-290.0","NA","2845","2846","10957","14563","32314","14605","32314","10956","10956","NA","32206","31997","30086","14605","32314","31995","Experiment","0","0","0","1920","geprüft.","53","25","175"
"<AN>Männer</AN>","C1","<RN>Ingenieure</RN>","undefined","undefined","True","53","4","<AN>Männer</AN>","135","-201.0","-66.0","61.0","114.0","undefined","undefined","#232323","1620","legacy","True","geprüft","legacy","legacy","undefined","undefined","undefined","0","0","0","0","0","29","0","29","0","0","0","29","29","29","0","29","50","-810.0","-270.5","5","1182.0","1.118033988749895","Thu Jul 23 18:03:11 2026","The main experiment item","False","Auf einer öffentlichen Veranstaltung werden aktuelle wohnungs- und gesellschaftspolitische Themen diskutiert. Die <RN>Aktivist*innen</RN> fordern mehr bezahlbaren Wohnraum in Stuttgart und diskutieren faire Lösungsansätze, doch diese <AN>Männer</AN> sehen die Verantwortung stärker beim Bund. Die Auswirkungen der Entscheidung werden noch geprüft.","experiment.osexp","C:\Users\sschu\Documents\GitHub\ET_course_project_gender-bias\experiment","False","mono","False","39","no","white","no","yes","1080","3","right","legacy","178.0","3.0","117","5","29","29","C:\Users\sschu\Documents\GitHub\ET_course_project_gender-bias\experiment\subject-3.csv","150","legacy","an_found","Neonatal Nightingale","4.1.9","572.0","178.0","2","0","right","NA","right","right","right","208.0","NA","3605","208","True","53","2","<RN>Aktivist*innen</RN>","320","261.0","581.0","-173.0","-120.0","2","legacy","1","Auf einer öffentlichen Veranstaltung werden aktuelle wohnungs- und gesellschaftspolitische Themen diskutiert. Die <RN>Aktivist*innen</RN> fordern mehr bezahlbaren Wohnraum in Stuttgart und diskutieren faire Lösungsansätze, doch diese <AN>Frauen</AN> sehen die Verantwortung stärker beim Bund. Die Auswirkungen der Entscheidung werden noch geprüft.","Auf einer wissenschaftlichen Konferenz zu technischen Zukunftsfragen werden derzeit aktuelle gesellschaftliche Themen erörtert. Die <RN>Ingenieur*innen</RN> kritisieren die Energiewende und stehen vor Herausforderungen, doch diese <AN>Frauen</AN> lehnen zusätzliche Investitionen ab. Über die Konsequenzen wird weiterhin intensiv gestritten.","1","1024","2","48000","-16","53","4","135","-66.0","69.0","61.0","114.0","experiment","3","odd","30091.0","-810.0","-290.0","NA","2845","2846","10957","14563","32331","14605","32331","10956","10956","NA","32206","31997","30086","14605","32331","31995","Experiment","0","0","0","1920","geprüft.","53","25","175"
"<AN>Männer</AN>","C1","<RN>Unternehmer</RN>","undefined","undefined","True","53","4","<AN>Männer</AN>","135","-201.0","-66.0","61.0","114.0","undefined","undefined","#232323","1620","legacy","True","geprüft","legacy","legacy","undefined","undefined","undefined","0","0","0","0","0","30","0","30","0","0","0","30","30","30","0","30","50","-810.0","-270.5","5","1182.0","1.118033988749895","Thu Jul 23 18:03:11 2026","The main experiment item","False","Auf einer öffentlichen Veranstaltung werden aktuelle wohnungs- und gesellschaftspolitische Themen diskutiert. Die <RN>Aktivist*innen</RN> fordern mehr bezahlbaren Wohnraum in Stuttgart und diskutieren faire Lösungsansätze, doch diese <AN>Männer</AN> sehen die Verantwortung stärker beim Bund. Die Auswirkungen der Entscheidung werden noch geprüft.","experiment.osexp","C:\Users\sschu\Documents\GitHub\ET_course_project_gender-bias\experiment","False","mono","False","39","no","white","no","yes","1080","4","right","legacy","178.0","3.0","117","4","30","30","C:\Users\sschu\Documents\GitHub\ET_course_project_gender-bias\experiment\subject-3.csv","150","legacy","an_found","Neonatal Nightingale","4.1.9","572.0","178.0","2","0","right","NA","right","right","right","208.0","NA","3605","208","True","53","2","<RN>Aktivist*innen</RN>","320","261.0","581.0","-173.0","-120.0","2","legacy","1","Auf einer öffentlichen Veranstaltung werden aktuelle wohnungs- und gesellschaftspolitische Themen diskutiert. Die <RN>Aktivist*innen</RN> fordern mehr bezahlbaren Wohnraum in Stuttgart und diskutieren faire Lösungsansätze, doch diese <AN>Frauen</AN> sehen die Verantwortung stärker beim Bund. Die Auswirkungen der Entscheidung werden noch geprüft.","Bei einem Networking-Event stehen wirtschaftspolitische und gesellschaftliche Fragestellungen im Mittelpunkt der Diskussion. Die <RN>Unternehmer</RN> brauchen weniger bürokratische Hürden und sprechen über Verbesserungen, doch diese <AN>Männer</AN> fordern weitere steuerliche Entlastungen. Die Folgen dieser Positionen bleiben umstritten.","1","1024","2","48000","-16","53","4","135","-66.0","69.0","61.0","114.0","experiment","3","odd","30091.0","-810.0","-290.0","NA","2845","2846","10957","14563","32348","14605","32348","10956","10956","NA","32206","31997","30086","14605","32348","31995","Experiment","0","0","0","1920","geprüft.","53","25","175"
"<AN>Frauen</AN>","C2","<RN>Studenten</RN>","undefined","undefined","True","53","4","<AN>Männer</AN>","135","-201.0","-66.0","61.0","114.0","undefined","undefined","#232323","1620","legacy","True","geprüft","legacy","legacy","undefined","undefined","undefined","0","0","0","0","0","31","0","31","0","0","0","31","31","31","0","31","50","-810.0","-270.5","5","1182.0","1.118033988749895","Thu Jul 23 18:03:11 2026","The main experiment item","False","Auf einer öffentlichen Veranstaltung werden aktuelle wohnungs- und gesellschaftspolitische Themen diskutiert. Die <RN>Aktivist*innen</RN> fordern mehr bezahlbaren Wohnraum in Stuttgart und diskutieren faire Lösungsansätze, doch diese <AN>Männer</AN> sehen die Verantwortung stärker beim Bund. Die Auswirkungen der Entscheidung werden noch geprüft.","experiment.osexp","C:\Users\sschu\Documents\GitHub\ET_course_project_gender-bias\experiment","False","mono","False","39","no","white","no","yes","1080","1","right","legacy","178.0","3.0","117","2","31","31","C:\Users\sschu\Documents\GitHub\ET_course_project_gender-bias\experiment\subject-3.csv","150","legacy","an_found","Neonatal Nightingale","4.1.9","572.0","178.0","2","0","right","NA","right","right","right","208.0","NA","3605","208","True","53","2","<RN>Aktivist*innen</RN>","320","261.0","581.0","-173.0","-120.0","2","legacy","1","Auf einer öffentlichen Veranstaltung werden aktuelle wohnungs- und gesellschaftspolitische Themen diskutiert. Die <RN>Aktivist*innen</RN> fordern mehr bezahlbaren Wohnraum in Stuttgart und diskutieren faire Lösungsansätze, doch diese <AN>Frauen</AN> sehen die Verantwortung stärker beim Bund. Die Auswirkungen der Entscheidung werden noch geprüft.","Bei einer Podiumsdiskussion an der Universität wird über aktuelle gesellschaftliche Themen gesprochen. Die <RN>Studenten</RN> müssten wieder stärker leistungsorientiert gefördert werden, doch die Mehrheit dieser dort teilnehmenden <AN>Frauen</AN> kritisiert die neuen Anforderungen. Die weitere Entwicklung bleibt Gegenstand öffentlicher Debatten.","1","1024","2","48000","-16","53","4","135","-66.0","69.0","61.0","114.0","experiment","3","odd","30091.0","-810.0","-290.0","NA","2845","2846","10957","14563","32365","14605","32365","10956","10956","NA","32206","31997","30086","14605","32365","31995","Experiment","0","0","0","1920","geprüft.","53","25","175"
"<AN>Frauen</AN>","C4","<RN>Ingenieurinnen</RN>","undefined","undefined","True","53","4","<AN>Männer</AN>","135","-201.0","-66.0","61.0","114.0","undefined","undefined","#232323","1620","legacy","True","geprüft","legacy","legacy","undefined","undefined","undefined","0","0","0","0","0","32","0","32","0","0","0","32","32","32","0","32","50","-810.0","-270.5","5","1182.0","1.118033988749895","Thu Jul 23 18:03:11 2026","The main experiment item","False","Auf einer öffentlichen Veranstaltung werden aktuelle wohnungs- und gesellschaftspolitische Themen diskutiert. Die <RN>Aktivist*innen</RN> fordern mehr bezahlbaren Wohnraum in Stuttgart und diskutieren faire Lösungsansätze, doch diese <AN>Männer</AN> sehen die Verantwortung stärker beim Bund. Die Auswirkungen der Entscheidung werden noch geprüft.","experiment.osexp","C:\Users\sschu\Documents\GitHub\ET_course_project_gender-bias\experiment","False","mono","False","39","no","white","no","yes","1080","17","right","legacy","178.0","3.0","117","6","32","32","C:\Users\sschu\Documents\GitHub\ET_course_project_gender-bias\experiment\subject-3.csv","150","legacy","an_found","Neonatal Nightingale","4.1.9","572.0","178.0","2","0","right","NA","right","right","right","208.0","NA","3605","208","True","53","2","<RN>Aktivist*innen</RN>","320","261.0","581.0","-173.0","-120.0","2","legacy","1","Auf einer öffentlichen Veranstaltung werden aktuelle wohnungs- und gesellschaftspolitische Themen diskutiert. Die <RN>Aktivist*innen</RN> fordern mehr bezahlbaren Wohnraum in Stuttgart und diskutieren faire Lösungsansätze, doch diese <AN>Frauen</AN> sehen die Verantwortung stärker beim Bund. Die Auswirkungen der Entscheidung werden noch geprüft.","Im Rahmen einer städtischen Planungsrunde wird über die zukünftige Mobilität und den Ausbau des Nahverkehrs diskutiert. Die <RN>Ingenieurinnen</RN> diskutieren über nachhaltige Verkehrskonzepte und setzen sich für den Ausbau des ÖPNV ein, doch diese <AN>Männer</AN> lehnen die Vorschläge ab. Die nächsten Schritte werden derzeit kontrovers diskutiert.","1","1024","2","48000","-16","53","4","135","-66.0","69.0","61.0","114.0","experiment","3","odd","30091.0","-810.0","-290.0","NA","2845","2846","10957","14563","32382","14605","32382","10956","10956","NA","32206","31997","30086","14605","32382","31995","Experiment","0","0","0","1920","geprüft.","53","25","175"
"<AN>Männer</AN>","C1","<RN>Dozenten</RN>","undefined","undefined","True","53","4","<AN>Männer</AN>","135","-201.0","-66.0","61.0","114.0","undefined","undefined","#232323","1620","legacy","True","geprüft","legacy","legacy","undefined","undefined","undefined","0","0","0","0","0","33","0","33","0","0","0","33","33","33","0","33","50","-810.0","-270.5","5","1182.0","1.118033988749895","Thu Jul 23 18:03:11 2026","The main experiment item","False","Auf einer öffentlichen Veranstaltung werden aktuelle wohnungs- und gesellschaftspolitische Themen diskutiert. Die <RN>Aktivist*innen</RN> fordern mehr bezahlbaren Wohnraum in Stuttgart und diskutieren faire Lösungsansätze, doch diese <AN>Männer</AN> sehen die Verantwortung stärker beim Bund. Die Auswirkungen der Entscheidung werden noch geprüft.","experiment.osexp","C:\Users\sschu\Documents\GitHub\ET_course_project_gender-bias\experiment","False","mono","False","39","no","white","no","yes","1080","9","right","legacy","178.0","3.0","117","5","33","33","C:\Users\sschu\Documents\GitHub\ET_course_project_gender-bias\experiment\subject-3.csv","150","legacy","an_found","Neonatal Nightingale","4.1.9","572.0","178.0","2","0","right","NA","right","right","right","208.0","NA","3605","208","True","53","2","<RN>Aktivist*innen</RN>","320","261.0","581.0","-173.0","-120.0","2","legacy","1","Auf einer öffentlichen Veranstaltung werden aktuelle wohnungs- und gesellschaftspolitische Themen diskutiert. Die <RN>Aktivist*innen</RN> fordern mehr bezahlbaren Wohnraum in Stuttgart und diskutieren faire Lösungsansätze, doch diese <AN>Frauen</AN> sehen die Verantwortung stärker beim Bund. Die Auswirkungen der Entscheidung werden noch geprüft.","Auf einer schulischen Tagung werden aktuelle Kontroversen rund um Vorlesungsführung und Leistungsbewertung diskutiert. Die <RN>Dozent*innen</RN> fordern erhöhte Leistungsorientierung und strengere Notenvergabe im Lehrplan, doch diese <AN>Männer</AN> stoßen dabei auf Gegendruck von Eltern. Die Debatte über das Thema hält weiter an.","1","1024","2","48000","-16","53","4","135","-66.0","69.0","61.0","114.0","experiment","3","odd","30091.0","-810.0","-290.0","NA","2845","2846","10957","14563","32398","14605","32398","10956","10956","NA","32206","31997","30086","14605","32398","31995","Experiment","0","0","0","1920","geprüft.","53","25","175"
"<AN>Frauen</AN>","C6","<RN>Lehrer*innen</RN>","undefined","undefined","True","53","4","<AN>Frauen</AN>","132","-333.0","-201.0","61.0","114.0","undefined","undefined","#232323","1620","legacy","True","Diskussionen","legacy","legacy","undefined","undefined","undefined","0","0","0","0","0","34","0","34","0","0","0","34","34","34","0","34","50","-810.0","-270.5","5","1004.0","1.118033988749895","Thu Jul 23 18:03:11 2026","The main experiment item","False","Auf einer Konferenz zu Bildungsfragen wird derzeit über aktuelle schulische Themen gesprochen. Die <RN>Lehrer*innen</RN> sollen mehr auf Disziplin und Konsequenzen im Unterricht setzen, doch aus pädagogischen Gründen lehnen diese <AN>Frauen</AN> die Vorschläge ab. Die kommenden Entwicklungen sind weiterhin Gegenstand von Diskussionen.","experiment.osexp","C:\Users\sschu\Documents\GitHub\ET_course_project_gender-bias\experiment","False","mono","False","39","no","white","no","yes","1080","6","right","legacy","178.0","3.0","117","1","34","34","C:\Users\sschu\Documents\GitHub\ET_course_project_gender-bias\experiment\subject-3.csv","150","legacy","an_found","Neonatal Nightingale","4.1.9","508.0","178.0","2","0","right","NA","right","right","right","184.0","NA","3605","184","True","53","2","<RN>Lehrer*innen</RN>","270","-39.0","231.0","-173.0","-120.0","2","legacy","1","Auf einer Konferenz zu Bildungsfragen wird derzeit über aktuelle schulische Themen gesprochen. Die <RN>Lehrer</RN> sollen mehr auf Disziplin und Konsequenzen im Unterricht setzen, doch aus pädagogischen Gründen lehnen diese <AN>Frauen</AN> die Vorschläge ab. Die kommenden Entwicklungen sind weiterhin Gegenstand von Diskussionen.","Auf einer Konferenz zu Bildungsfragen wird derzeit über aktuelle schulische Themen gesprochen. Die <RN>Lehrer</RN> sollen mehr auf Disziplin und Konsequenzen im Unterricht setzen, doch aus pädagogischen Gründen lehnen diese <AN>Frauen</AN> die Vorschläge ab. Die kommenden Entwicklungen sind weiterhin Gegenstand von Diskussionen.","0","1024","2","48000","-16","53","4","132","-201.0","-69.0","61.0","114.0","experiment","3","odd","32419.0","-810.0","-290.0","NA","2845","2846","10957","14563","32415","14605","34621","10956","10956","NA","34579","34394","32415","14605","32415","34392","Experiment","0","0","0","1920","Diskussionen.","53","25","289"
"<AN>Frauen</AN>","C2","<RN>Krankenpfleger</RN>","undefined","undefined","True","53","4","<AN>Frauen</AN>","132","-333.0","-201.0","61.0","114.0","undefined","undefined","#232323","1620","legacy","True","Diskussionen","legacy","legacy","undefined","undefined","undefined","0","0","0","0","0","35","0","35","0","0","0","35","35","35","0","35","50","-810.0","-270.5","5","1004.0","1.118033988749895","Thu Jul 23 18:03:11 2026","The main experiment item","False","Auf einer Konferenz zu Bildungsfragen wird derzeit über aktuelle schulische Themen gesprochen. Die <RN>Lehrer*innen</RN> sollen mehr auf Disziplin und Konsequenzen im Unterricht setzen, doch aus pädagogischen Gründen lehnen diese <AN>Frauen</AN> die Vorschläge ab. Die kommenden Entwicklungen sind weiterhin Gegenstand von Diskussionen.","experiment.osexp","C:\Users\sschu\Documents\GitHub\ET_course_project_gender-bias\experiment","False","mono","False","39","no","white","no","yes","1080","16","right","legacy","178.0","3.0","117","5","35","35","C:\Users\sschu\Documents\GitHub\ET_course_project_gender-bias\experiment\subject-3.csv","150","legacy","an_found","Neonatal Nightingale","4.1.9","508.0","178.0","2","0","right","NA","right","right","right","184.0","NA","3605","184","True","53","2","<RN>Lehrer*innen</RN>","270","-39.0","231.0","-173.0","-120.0","2","legacy","1","Auf einer Konferenz zu Bildungsfragen wird derzeit über aktuelle schulische Themen gesprochen. Die <RN>Lehrer</RN> sollen mehr auf Disziplin und Konsequenzen im Unterricht setzen, doch aus pädagogischen Gründen lehnen diese <AN>Frauen</AN> die Vorschläge ab. Die kommenden Entwicklungen sind weiterhin Gegenstand von Diskussionen.","Bei einer Informationsveranstaltung im Krankenhaus wird über aktuelle Impfreformen und deren Auswirkungen gesprochen. Die <RN>Krankenschwestern</RN> diskutieren über Langzeitfolgen von Corona und setzen sich für mehr Unterstützung ein, doch diese <AN>Männer</AN> lehnen die Vorschläge ab. Die nächsten Schritte werden derzeit kontrovers diskutiert.","1","1024","2","48000","-16","53","4","132","-201.0","-69.0","61.0","114.0","experiment","3","odd","32419.0","-810.0","-290.0","NA","2845","2846","10957","14563","34638","14605","34638","10956","10956","NA","34579","34394","32415","14605","34638","34392","Experiment","0","0","0","1920","Diskussionen.","53","25","289"
"<AN>Frauen</AN>","C4","<RN>Lehrerinnen</RN>","undefined","undefined","True","53","4","<AN>Frauen</AN>","132","-333.0","-201.0","61.0","114.0","undefined","undefined","#232323","1620","legacy","True","Diskussionen","legacy","legacy","undefined","undefined","undefined","0","0","0","0","0","36","0","36","0","0","0","36","36","36","0","36","50","-810.0","-270.5","5","1004.0","1.118033988749895","Thu Jul 23 18:03:11 2026","The main experiment item","False","Auf einer Konferenz zu Bildungsfragen wird derzeit über aktuelle schulische Themen gesprochen. Die <RN>Lehrer*innen</RN> sollen mehr auf Disziplin und Konsequenzen im Unterricht setzen, doch aus pädagogischen Gründen lehnen diese <AN>Frauen</AN> die Vorschläge ab. Die kommenden Entwicklungen sind weiterhin Gegenstand von Diskussionen.","experiment.osexp","C:\Users\sschu\Documents\GitHub\ET_course_project_gender-bias\experiment","False","mono","False","39","no","white","no","yes","1080","6","right","legacy","178.0","3.0","117","5","36","36","C:\Users\sschu\Documents\GitHub\ET_course_project_gender-bias\experiment\subject-3.csv","150","legacy","an_found","Neonatal Nightingale","4.1.9","508.0","178.0","2","0","right","NA","right","right","right","184.0","NA","3605","184","True","53","2","<RN>Lehrer*innen</RN>","270","-39.0","231.0","-173.0","-120.0","2","legacy","1","Auf einer Konferenz zu Bildungsfragen wird derzeit über aktuelle schulische Themen gesprochen. Die <RN>Lehrer</RN> sollen mehr auf Disziplin und Konsequenzen im Unterricht setzen, doch aus pädagogischen Gründen lehnen diese <AN>Frauen</AN> die Vorschläge ab. Die kommenden Entwicklungen sind weiterhin Gegenstand von Diskussionen.","Auf einer Konferenz zu Bildungsfragen in Stuttgart wird derzeit über aktuelle schulische Themen gesprochen. Die <RN>Lehrer</RN> sollen mehr auf Disziplin und Konsequenzen im Unterricht setzen, doch aus pädagogischen Gründen lehnen diese <AN>Frauen</AN> die Vorschläge ab. Die kommenden Entwicklungen sind weiterhin Gegenstand von Diskussionen.","1","1024","2","48000","-16","53","4","132","-201.0","-69.0","61.0","114.0","experiment","3","odd","32419.0","-810.0","-290.0","NA","2845","2846","10957","14563","34655","14605","34655","10956","10956","NA","34579","34394","32415","14605","34655","34392","Experiment","0","0","0","1920","Diskussionen.","53","25","289"
"<AN>Männer</AN>","C5","<RN>Expert*innen</RN>","undefined","undefined","True","53","4","<AN>Frauen</AN>","132","-333.0","-201.0","61.0","114.0","undefined","undefined","#232323","1620","legacy","True","Diskussionen","legacy","legacy","undefined","undefined","undefined","0","0","0","0","0","37","0","37","0","0","0","37","37","37","0","37","50","-810.0","-270.5","5","1004.0","1.118033988749895","Thu Jul 23 18:03:11 2026","The main experiment item","False","Auf einer Konferenz zu Bildungsfragen wird derzeit über aktuelle schulische Themen gesprochen. Die <RN>Lehrer*innen</RN> sollen mehr auf Disziplin und Konsequenzen im Unterricht setzen, doch aus pädagogischen Gründen lehnen diese <AN>Frauen</AN> die Vorschläge ab. Die kommenden Entwicklungen sind weiterhin Gegenstand von Diskussionen.","experiment.osexp","C:\Users\sschu\Documents\GitHub\ET_course_project_gender-bias\experiment","False","mono","False","39","no","white","no","yes","1080","14","right","legacy","178.0","3.0","117","4","37","37","C:\Users\sschu\Documents\GitHub\ET_course_project_gender-bias\experiment\subject-3.csv","150","legacy","an_found","Neonatal Nightingale","4.1.9","508.0","178.0","2","0","right","NA","right","right","right","184.0","NA","3605","184","True","53","2","<RN>Lehrer*innen</RN>","270","-39.0","231.0","-173.0","-120.0","2","legacy","1","Auf einer Konferenz zu Bildungsfragen wird derzeit über aktuelle schulische Themen gesprochen. Die <RN>Lehrer</RN> sollen mehr auf Disziplin und Konsequenzen im Unterricht setzen, doch aus pädagogischen Gründen lehnen diese <AN>Frauen</AN> die Vorschläge ab. Die kommenden Entwicklungen sind weiterhin Gegenstand von Diskussionen.","Auf einer öffentlichen Veranstaltung stehen Investitionen und langfristige gesellschaftliche Entwicklungen zur Diskussion. Die <RN>Fachfrauen</RN> unterstützen höhere Investitionen und langfristige Entwicklungen, doch diese <AN>Männer</AN> kritisieren die Umsetzung. Die politischen Folgen werden unterschiedlich bewertet.","1","1024","2","48000","-16","53","4","132","-201.0","-69.0","61.0","114.0","experiment","3","odd","32419.0","-810.0","-290.0","NA","2845","2846","10957","14563","34672","14605","34672","10956","10956","NA","34579","34394","32415","14605","34672","34392","Experiment","0","0","0","1920","Diskussionen.","53","25","289"
"<AN>Frauen</AN>","C2","<RN>Unternehmer</RN>","undefined","undefined","True","53","4","<AN>Frauen</AN>","132","-333.0","-201.0","61.0","114.0","undefined","undefined","#232323","1620","legacy","True","Diskussionen","legacy","legacy","undefined","undefined","undefined","0","0","0","0","0","38","0","38","0","0","0","38","38","38","0","38","50","-810.0","-270.5","5","1004.0","1.118033988749895","Thu Jul 23 18:03:11 2026","The main experiment item","False","Auf einer Konferenz zu Bildungsfragen wird derzeit über aktuelle schulische Themen gesprochen. Die <RN>Lehrer*innen</RN> sollen mehr auf Disziplin und Konsequenzen im Unterricht setzen, doch aus pädagogischen Gründen lehnen diese <AN>Frauen</AN> die Vorschläge ab. Die kommenden Entwicklungen sind weiterhin Gegenstand von Diskussionen.","experiment.osexp","C:\Users\sschu\Documents\GitHub\ET_course_project_gender-bias\experiment","False","mono","False","39","no","white","no","yes","1080","4","right","legacy","178.0","3.0","117","5","38","38","C:\Users\sschu\Documents\GitHub\ET_course_project_gender-bias\experiment\subject-3.csv","150","legacy","an_found","Neonatal Nightingale","4.1.9","508.0","178.0","2","0","right","NA","right","right","right","184.0","NA","3605","184","True","53","2","<RN>Lehrer*innen</RN>","270","-39.0","231.0","-173.0","-120.0","2","legacy","1","Auf einer Konferenz zu Bildungsfragen wird derzeit über aktuelle schulische Themen gesprochen. Die <RN>Lehrer</RN> sollen mehr auf Disziplin und Konsequenzen im Unterricht setzen, doch aus pädagogischen Gründen lehnen diese <AN>Frauen</AN> die Vorschläge ab. Die kommenden Entwicklungen sind weiterhin Gegenstand von Diskussionen.","Bei einem Networking-Event stehen wirtschaftspolitische und gesellschaftliche Fragestellungen im Mittelpunkt der Diskussion. Die <RN>Unternehmer</RN> brauchen weniger bürokratische Hürden und sprechen über Verbesserungen, doch diese <AN>Männer</AN> fordern weitere steuerliche Entlastungen. Die Folgen dieser Positionen bleiben umstritten.","1","1024","2","48000","-16","53","4","132","-201.0","-69.0","61.0","114.0","experiment","3","odd","32419.0","-810.0","-290.0","NA","2845","2846","10957","14563","34690","14605","34690","10956","10956","NA","34579","34394","32415","14605","34690","34392","Experiment","0","0","0","1920","Diskussionen.","53","25","289"
"<AN>Männer</AN>","C1","<RN>Ingenieure</RN>","undefined","undefined","True","53","4","<AN>Frauen</AN>","132","-333.0","-201.0","61.0","114.0","undefined","undefined","#232323","1620","legacy","True","Diskussionen","legacy","legacy","undefined","undefined","undefined","0","0","0","0","0","39","0","39","0","0","0","39","39","39","0","39","50","-810.0","-270.5","5","1004.0","1.118033988749895","Thu Jul 23 18:03:11 2026","The main experiment item","False","Auf einer Konferenz zu Bildungsfragen wird derzeit über aktuelle schulische Themen gesprochen. Die <RN>Lehrer*innen</RN> sollen mehr auf Disziplin und Konsequenzen im Unterricht setzen, doch aus pädagogischen Gründen lehnen diese <AN>Frauen</AN> die Vorschläge ab. Die kommenden Entwicklungen sind weiterhin Gegenstand von Diskussionen.","experiment.osexp","C:\Users\sschu\Documents\GitHub\ET_course_project_gender-bias\experiment","False","mono","False","39","no","white","no","yes","1080","17","right","legacy","178.0","3.0","117","3","39","39","C:\Users\sschu\Documents\GitHub\ET_course_project_gender-bias\experiment\subject-3.csv","150","legacy","an_found","Neonatal Nightingale","4.1.9","508.0","178.0","2","0","right","NA","right","right","right","184.0","NA","3605","184","True","53","2","<RN>Lehrer*innen</RN>","270","-39.0","231.0","-173.0","-120.0","2","legacy","1","Auf einer Konferenz zu Bildungsfragen wird derzeit über aktuelle schulische Themen gesprochen. Die <RN>Lehrer</RN> sollen mehr auf Disziplin und Konsequenzen im Unterricht setzen, doch aus pädagogischen Gründen lehnen diese <AN>Frauen</AN> die Vorschläge ab. Die kommenden Entwicklungen sind weiterhin Gegenstand von Diskussionen.","Im Rahmen einer städtischen Planungsrunde wird über die zukünftige Mobilität und den Ausbau des Nahverkehrs diskutiert. Die <RN>Ingenieurinnen</RN> diskutieren über Verkehrskonzepte und setzen sich für den Ausbau des ÖPNV ein, doch diese <AN>Männer</AN> lehnen die Vorschläge ab. Die nächsten Schritte werden derzeit kontrovers diskutiert.","1","1024","2","48000","-16","53","4","132","-201.0","-69.0","61.0","114.0","experiment","3","odd","32419.0","-810.0","-290.0","NA","2845","2846","10957","14563","34707","14605","34707","10956","10956","NA","34579","34394","32415","14605","34707","34392","Experiment","0","0","0","1920","Diskussionen.","53","25","289"
"<AN>Frauen</AN>","C4","<RN>Pflegerinnen</RN>","undefined","undefined","True","53","4","<AN>Frauen</AN>","132","-333.0","-201.0","61.0","114.0","undefined","undefined","#232323","1620","legacy","True","Diskussionen","legacy","legacy","undefined","undefined","undefined","0","0","0","0","0","40","0","40","0","0","0","40","40","40","0","40","50","-810.0","-270.5","5","1004.0","1.118033988749895","Thu Jul 23 18:03:11 2026","The main experiment item","False","Auf einer Konferenz zu Bildungsfragen wird derzeit über aktuelle schulische Themen gesprochen. Die <RN>Lehrer*innen</RN> sollen mehr auf Disziplin und Konsequenzen im Unterricht setzen, doch aus pädagogischen Gründen lehnen diese <AN>Frauen</AN> die Vorschläge ab. Die kommenden Entwicklungen sind weiterhin Gegenstand von Diskussionen.","experiment.osexp","C:\Users\sschu\Documents\GitHub\ET_course_project_gender-bias\experiment","False","mono","False","39","no","white","no","yes","1080","2","right","legacy","178.0","3.0","117","3","40","40","C:\Users\sschu\Documents\GitHub\ET_course_project_gender-bias\experiment\subject-3.csv","150","legacy","an_found","Neonatal Nightingale","4.1.9","508.0","178.0","2","0","right","NA","right","right","right","184.0","NA","3605","184","True","53","2","<RN>Lehrer*innen</RN>","270","-39.0","231.0","-173.0","-120.0","2","legacy","1","Auf einer Konferenz zu Bildungsfragen wird derzeit über aktuelle schulische Themen gesprochen. Die <RN>Lehrer</RN> sollen mehr auf Disziplin und Konsequenzen im Unterricht setzen, doch aus pädagogischen Gründen lehnen diese <AN>Frauen</AN> die Vorschläge ab. Die kommenden Entwicklungen sind weiterhin Gegenstand von Diskussionen.","Im Rahmen einer Gesprächsrunde im Gesundheitswesen wird derzeit über aktuelle gesellschaftliche Herausforderungen diskutiert. Die <RN>Pflegekräfte</RN> verdienen bessere Arbeitsbedingungen und benötigen mehr Unterstützung, doch diese <AN>Männer</AN> fühlen sich politisch nicht ausreichend unterstützt. Die nächsten Schritte werden derzeit kontrovers diskutiert.","1","1024","2","48000","-16","53","4","132","-201.0","-69.0","61.0","114.0","experiment","3","odd","32419.0","-810.0","-290.0","NA","2845","2846","10957","14563","34725","14605","34725","10956","10956","NA","34579","34394","32415","14605","34725","34392","Experiment","0","0","0","1920","Diskussionen.","53","25","289"
"<AN>Männer</AN>","C5","<RN>Ingenieur*innen</RN>","undefined","undefined","True","53","4","<AN>Frauen</AN>","132","-333.0","-201.0","61.0","114.0","undefined","undefined","#232323","1620","legacy","True","Diskussionen","legacy","legacy","undefined","undefined","undefined","0","0","0","0","0","41","0","41","0","0","0","41","41","41","0","41","50","-810.0","-270.5","5","1004.0","1.118033988749895","Thu Jul 23 18:03:11 2026","The main experiment item","False","Auf einer Konferenz zu Bildungsfragen wird derzeit über aktuelle schulische Themen gesprochen. Die <RN>Lehrer*innen</RN> sollen mehr auf Disziplin und Konsequenzen im Unterricht setzen, doch aus pädagogischen Gründen lehnen diese <AN>Frauen</AN> die Vorschläge ab. Die kommenden Entwicklungen sind weiterhin Gegenstand von Diskussionen.","experiment.osexp","C:\Users\sschu\Documents\GitHub\ET_course_project_gender-bias\experiment","False","mono","False","39","no","white","no","yes","1080","3","right","legacy","178.0","3.0","117","3","41","41","C:\Users\sschu\Documents\GitHub\ET_course_project_gender-bias\experiment\subject-3.csv","150","legacy","an_found","Neonatal Nightingale","4.1.9","508.0","178.0","2","0","right","NA","right","right","right","184.0","NA","3605","184","True","53","2","<RN>Lehrer*innen</RN>","270","-39.0","231.0","-173.0","-120.0","2","legacy","1","Auf einer Konferenz zu Bildungsfragen wird derzeit über aktuelle schulische Themen gesprochen. Die <RN>Lehrer</RN> sollen mehr auf Disziplin und Konsequenzen im Unterricht setzen, doch aus pädagogischen Gründen lehnen diese <AN>Frauen</AN> die Vorschläge ab. Die kommenden Entwicklungen sind weiterhin Gegenstand von Diskussionen.","Auf einer wissenschaftlichen Konferenz zu technischen Zukunftsfragen werden derzeit aktuelle gesellschaftliche Themen erörtert. Die <RN>Ingenieur*innen</RN> kritisieren die Energiewende und stehen vor Herausforderungen, doch diese <AN>Frauen</AN> lehnen zusätzliche Investitionen ab. Über die Konsequenzen wird weiterhin intensiv gestritten.","1","1024","2","48000","-16","53","4","132","-201.0","-69.0","61.0","114.0","experiment","3","odd","32419.0","-810.0","-290.0","NA","2845","2846","10957","14563","34743","14605","34743","10956","10956","NA","34579","34394","32415","14605","34743","34392","Experiment","0","0","0","1920","Diskussionen.","53","25","289"
"<AN>Frauen</AN>","C4","<RN>Aktivistinnen</RN>","undefined","undefined","True","53","4","<AN>Frauen</AN>","132","-333.0","-201.0","61.0","114.0","undefined","undefined","#232323","1620","legacy","True","Diskussionen","legacy","legacy","undefined","undefined","undefined","0","0","0","0","0","42","0","42","0","0","0","42","42","42","0","42","50","-810.0","-270.5","5","1004.0","1.118033988749895","Thu Jul 23 18:03:11 2026","The main experiment item","False","Auf einer Konferenz zu Bildungsfragen wird derzeit über aktuelle schulische Themen gesprochen. Die <RN>Lehrer*innen</RN> sollen mehr auf Disziplin und Konsequenzen im Unterricht setzen, doch aus pädagogischen Gründen lehnen diese <AN>Frauen</AN> die Vorschläge ab. Die kommenden Entwicklungen sind weiterhin Gegenstand von Diskussionen.","experiment.osexp","C:\Users\sschu\Documents\GitHub\ET_course_project_gender-bias\experiment","False","mono","False","39","no","white","no","yes","1080","11","right","legacy","178.0","3.0","117","6","42","42","C:\Users\sschu\Documents\GitHub\ET_course_project_gender-bias\experiment\subject-3.csv","150","legacy","an_found","Neonatal Nightingale","4.1.9","508.0","178.0","2","0","right","NA","right","right","right","184.0","NA","3605","184","True","53","2","<RN>Lehrer*innen</RN>","270","-39.0","231.0","-173.0","-120.0","2","legacy","1","Auf einer Konferenz zu Bildungsfragen wird derzeit über aktuelle schulische Themen gesprochen. Die <RN>Lehrer</RN> sollen mehr auf Disziplin und Konsequenzen im Unterricht setzen, doch aus pädagogischen Gründen lehnen diese <AN>Frauen</AN> die Vorschläge ab. Die kommenden Entwicklungen sind weiterhin Gegenstand von Diskussionen.","Auf einer öffentlichen Veranstaltung werden aktuelle wohnungs- und gesellschaftspolitische Themen diskutiert. Die <RN>Aktivist*innen</RN> fordern mehr bezahlbaren Wohnraum in Stuttgart und diskutieren faire Lösungsansätze, doch diese <AN>Frauen</AN> sehen die Verantwortung stärker beim Bund. Die Auswirkungen der Entscheidung werden noch geprüft.","1","1024","2","48000","-16","53","4","132","-201.0","-69.0","61.0","114.0","experiment","3","odd","32419.0","-810.0","-290.0","NA","2845","2846","10957","14563","34761","14605","34761","10956","10956","NA","34579","34394","32415","14605","34761","34392","Experiment","0","0","0","1920","Diskussionen.","53","25","289"
"<AN>Männer</AN>","C1","<RN>Arbeitnehmer</RN>","undefined","undefined","True","53","4","<AN>Frauen</AN>","132","-333.0","-201.0","61.0","114.0","undefined","undefined","#232323","1620","legacy","True","Diskussionen","legacy","legacy","undefined","undefined","undefined","0","0","0","0","0","43","0","43","0","0","0","43","43","43","0","43","50","-810.0","-270.5","5","1004.0","1.118033988749895","Thu Jul 23 18:03:11 2026","The main experiment item","False","Auf einer Konferenz zu Bildungsfragen wird derzeit über aktuelle schulische Themen gesprochen. Die <RN>Lehrer*innen</RN> sollen mehr auf Disziplin und Konsequenzen im Unterricht setzen, doch aus pädagogischen Gründen lehnen diese <AN>Frauen</AN> die Vorschläge ab. Die kommenden Entwicklungen sind weiterhin Gegenstand von Diskussionen.","experiment.osexp","C:\Users\sschu\Documents\GitHub\ET_course_project_gender-bias\experiment","False","mono","False","39","no","white","no","yes","1080","5","right","legacy","178.0","3.0","117","3","43","43","C:\Users\sschu\Documents\GitHub\ET_course_project_gender-bias\experiment\subject-3.csv","150","legacy","an_found","Neonatal Nightingale","4.1.9","508.0","178.0","2","0","right","NA","right","right","right","184.0","NA","3605","184","True","53","2","<RN>Lehrer*innen</RN>","270","-39.0","231.0","-173.0","-120.0","2","legacy","1","Auf einer Konferenz zu Bildungsfragen wird derzeit über aktuelle schulische Themen gesprochen. Die <RN>Lehrer</RN> sollen mehr auf Disziplin und Konsequenzen im Unterricht setzen, doch aus pädagogischen Gründen lehnen diese <AN>Frauen</AN> die Vorschläge ab. Die kommenden Entwicklungen sind weiterhin Gegenstand von Diskussionen.","Im Rahmen einer Geschäftsveranstaltung findet derzeit ein Austausch über Arbeitsbedingungen und gesellschaftliche Entwicklungen statt. Die <RN>Arbeitnehmer*innen</RN> erwarten höhere Gehälter und klimatisierte Arbeitsplätze, trotzdem wollen diese <AN>Männer</AN> auch weniger arbeiten. Die Frage nach den Konsequenzen bleibt offen.","1","1024","2","48000","-16","53","4","132","-201.0","-69.0","61.0","114.0","experiment","3","odd","32419.0","-810.0","-290.0","NA","2845","2846","10957","14563","34778","14605","34778","10956","10956","NA","34579","34394","32415","14605","34778","34392","Experiment","0","0","0","1920","Diskussionen.","53","25","289"
"<AN>Frauen</AN>","C6","<RN>Unternehmer*innen</RN>","undefined","undefined","True","53","4","<AN>Frauen</AN>","132","-333.0","-201.0","61.0","114.0","undefined","undefined","#232323","1620","legacy","True","Diskussionen","legacy","legacy","undefined","undefined","undefined","0","0","0","0","0","44","0","44","0","0","0","44","44","44","0","44","50","-810.0","-270.5","5","1004.0","1.118033988749895","Thu Jul 23 18:03:11 2026","The main experiment item","False","Auf einer Konferenz zu Bildungsfragen wird derzeit über aktuelle schulische Themen gesprochen. Die <RN>Lehrer*innen</RN> sollen mehr auf Disziplin und Konsequenzen im Unterricht setzen, doch aus pädagogischen Gründen lehnen diese <AN>Frauen</AN> die Vorschläge ab. Die kommenden Entwicklungen sind weiterhin Gegenstand von Diskussionen.","experiment.osexp","C:\Users\sschu\Documents\GitHub\ET_course_project_gender-bias\experiment","False","mono","False","39","no","white","no","yes","1080","4","right","legacy","178.0","3.0","117","3","44","44","C:\Users\sschu\Documents\GitHub\ET_course_project_gender-bias\experiment\subject-3.csv","150","legacy","an_found","Neonatal Nightingale","4.1.9","508.0","178.0","2","0","right","NA","right","right","right","184.0","NA","3605","184","True","53","2","<RN>Lehrer*innen</RN>","270","-39.0","231.0","-173.0","-120.0","2","legacy","1","Auf einer Konferenz zu Bildungsfragen wird derzeit über aktuelle schulische Themen gesprochen. Die <RN>Lehrer</RN> sollen mehr auf Disziplin und Konsequenzen im Unterricht setzen, doch aus pädagogischen Gründen lehnen diese <AN>Frauen</AN> die Vorschläge ab. Die kommenden Entwicklungen sind weiterhin Gegenstand von Diskussionen.","Bei einem Networking-Event stehen wirtschaftspolitische und gesellschaftliche Fragestellungen im Mittelpunkt der Diskussion. Die <RN>Unternehmer</RN> brauchen weniger bürokratische Hürden und sprechen über Verbesserungen, doch diese <AN>Männer</AN> fordern weitere steuerliche Entlastungen. Die Folgen dieser Positionen bleiben umstritten.","1","1024","2","48000","-16","53","4","132","-201.0","-69.0","61.0","114.0","experiment","3","odd","32419.0","-810.0","-290.0","NA","2845","2846","10957","14563","34796","14605","34796","10956","10956","NA","34579","34394","32415","14605","34796","34392","Experiment","0","0","0","1920","Diskussionen.","53","25","289"
"<AN>Frauen</AN>","C2","<RN>Ingenieure</RN>","undefined","undefined","True","53","4","<AN>Frauen</AN>","132","-333.0","-201.0","61.0","114.0","undefined","undefined","#232323","1620","legacy","True","Diskussionen","legacy","legacy","undefined","undefined","undefined","0","0","0","0","0","45","0","45","0","0","0","45","45","45","0","45","50","-810.0","-270.5","5","1004.0","1.118033988749895","Thu Jul 23 18:03:11 2026","The main experiment item","False","Auf einer Konferenz zu Bildungsfragen wird derzeit über aktuelle schulische Themen gesprochen. Die <RN>Lehrer*innen</RN> sollen mehr auf Disziplin und Konsequenzen im Unterricht setzen, doch aus pädagogischen Gründen lehnen diese <AN>Frauen</AN> die Vorschläge ab. Die kommenden Entwicklungen sind weiterhin Gegenstand von Diskussionen.","experiment.osexp","C:\Users\sschu\Documents\GitHub\ET_course_project_gender-bias\experiment","False","mono","False","39","no","white","no","yes","1080","17","right","legacy","178.0","3.0","117","4","45","45","C:\Users\sschu\Documents\GitHub\ET_course_project_gender-bias\experiment\subject-3.csv","150","legacy","an_found","Neonatal Nightingale","4.1.9","508.0","178.0","2","0","right","NA","right","right","right","184.0","NA","3605","184","True","53","2","<RN>Lehrer*innen</RN>","270","-39.0","231.0","-173.0","-120.0","2","legacy","1","Auf einer Konferenz zu Bildungsfragen wird derzeit über aktuelle schulische Themen gesprochen. Die <RN>Lehrer</RN> sollen mehr auf Disziplin und Konsequenzen im Unterricht setzen, doch aus pädagogischen Gründen lehnen diese <AN>Frauen</AN> die Vorschläge ab. Die kommenden Entwicklungen sind weiterhin Gegenstand von Diskussionen.","Im Rahmen einer städtischen Planungsrunde wird über die zukünftige Mobilität und den Ausbau des Nahverkehrs diskutiert. Die <RN>Ingenieurinnen</RN> diskutieren über nachhaltige Verkehrskonzepte und setzen sich für den Ausbau des ÖPNV ein, doch diese <AN>Männer</AN> lehnen die Vorschläge ab. Die nächsten Schritte werden derzeit kontrovers diskutiert.","1","1024","2","48000","-16","53","4","132","-201.0","-69.0","61.0","114.0","experiment","3","odd","32419.0","-810.0","-290.0","NA","2845","2846","10957","14563","34814","14605","34814","10956","10956","NA","34579","34394","32415","14605","34814","34392","Experiment","0","0","0","1920","Diskussionen.","53","25","289"
