"AN","Code","RN","acc","accuracy","an_found","an_height","an_line","an_text","an_width","an_x1","an_x2","an_y1","an_y2","average_response_time","avg_rt","background","box_width","canvas_backend","central_fixation","clean_word","clock_backend","color_backend","correct","correct_instruction","correct_question_sketchpad","count_ending_sketchpad","count_experiment","count_eyetracker_calibration","count_instruction","count_instruction_pygaze_log","count_list_filter","count_liste_auswahl","count_logger","count_pygaze_start_recording","count_pygaze_stop_recording","count_question_pygaze_log","count_question_sketchpad","count_sentence_script","count_trial_loop","count_trial_sequence","count_var_init_inline_script","cross_size","cross_x","cross_y","current_line","current_line_width","d","datetime","description","disable_garbage_collection","display_sentence","experiment_file","experiment_path","font_bold","font_family","font_italic","font_size","font_underline","foreground","form_clicks","fullscreen","height","item","key","keyboard_backend","last_line_y","line_height_factor","line_spacing","list","live_row","live_row_trial_loop","logfile","margin","mouse_backend","name","opensesame_codename","opensesame_version","position_x","position_y","psychopy_screen","repeat_cycle","response","response_ending_sketchpad","response_instruction","response_key","response_question_sketchpad","response_time","response_time_ending_sketchpad","response_time_instruction","response_time_question_sketchpad","rn_found","rn_height","rn_line","rn_text","rn_width","rn_x1","rn_x2","rn_y1","rn_y2","round_decimals","sampler_backend","selected_list","sentence","sentence_text","skip_trial","sound_buf_size","sound_channels","sound_freq","sound_sample_size","spill_height","spill_line","spill_width","spill_x1","spill_x2","spill_y1","spill_y2","start","subject_nr","subject_parity","t0","text_start_x","text_start_y","time_ending_sketchpad","time_experiment","time_eyetracker_calibration","time_instruction","time_instruction_pygaze_log","time_list_filter","time_liste_auswahl","time_logger","time_pygaze_start_recording","time_pygaze_stop_recording","time_question_pygaze_log","time_question_sketchpad","time_sentence_script","time_trial_loop","time_trial_sequence","time_var_init_inline_script","timestamp","title","total_correct","total_response_time","total_responses","trial_counter","width","word","word_height","word_spacing","word_width"
"<AN>Frauen</AN>","C4","<RN>Lehrerinnen</RN>","undefined","undefined","None","None","None","None","None","None","None","None","None","undefined","undefined","#232323","None","legacy","None","None","legacy","legacy","undefined","undefined","None","0","0","0","0","0","0","0","0","0","0","0","0","0","0","0","0","None","None","None","None","None","None","Fri Jul 24 10:13:31 2026","The main experiment item","False","None","experiment.osexp","C:\Users\sschu\Documents\GitHub\ET_course_project_gender-bias\experiment","False","mono","False","18","no","white","no","yes","1080","6","None","legacy","None","None","None","5","0","0","C:\Users\sschu\Documents\GitHub\ET_course_project_gender-bias\experiment\subject-3.csv","None","legacy","an_found","Neonatal Nightingale","4.1.9","None","None","2","0","right","NA","right","None","NA","1489.0","NA","1489","NA","None","None","None","None","None","None","None","None","None","2","legacy","1","None","Auf einer Konferenz zu Bildungsfragen in Stuttgart wird derzeit über aktuelle schulische Themen gesprochen. Die <RN>Lehrer</RN> sollen mehr auf Disziplin und Konsequenzen im Unterricht setzen, doch aus pädagogischen Gründen lehnen diese <AN>Frauen</AN> die Vorschläge ab. Die kommenden Entwicklungen sind weiterhin Gegenstand von Diskussionen.","1","1024","2","48000","-16","None","None","None","None","None","None","None","experiment","3","odd","None","None","None","NA","1378","1379","4039","5529","5593","5571","5593","4038","NA","NA","NA","NA","5571","5592","4038","None","Experiment","0","0","0","0","1920","None","None","None","None"
"<AN>Frauen</AN>","C2","<RN>Ingenieure</RN>","undefined","undefined","None","None","None","None","None","None","None","None","None","undefined","undefined","#232323","None","legacy","None","None","legacy","legacy","undefined","undefined","None","0","0","0","0","0","1","0","1","0","0","1","1","1","0","1","0","None","None","None","None","None","None","Fri Jul 24 10:13:31 2026","The main experiment item","False","None","experiment.osexp","C:\Users\sschu\Documents\GitHub\ET_course_project_gender-bias\experiment","False","mono","False","18","no","white","no","yes","1080","3","None","legacy","None","None","None","6","1","1","C:\Users\sschu\Documents\GitHub\ET_course_project_gender-bias\experiment\subject-3.csv","None","legacy","an_found","Neonatal Nightingale","4.1.9","None","None","2","0","right","NA","right","None","NA","1489.0","NA","1489","NA","None","None","None","None","None","None","None","None","None","2","legacy","1","None","Auf einer wissenschaftlichen Konferenz zu technischen Zukunftsfragen werden derzeit aktuelle gesellschaftliche Themen erörtert. Die <RN>Ingenieur*innen</RN> spielen eine zentrale Rolle bei der Energiewende und stehen vor Herausforderungen, doch diese <AN>Frauen</AN> lehnen zusätzliche Investitionen ab. Über die Konsequenzen wird weiterhin intensiv gestritten.","1","1024","2","48000","-16","None","None","None","None","None","None","None","experiment","3","odd","None","None","None","NA","1378","1379","4039","5529","5617","5571","5617","4038","NA","NA","NA","NA","5571","5616","4038","None","Experiment","0","0","0","0","1920","None","None","None","None"
"<AN>Frauen</AN>","C4","<RN>Aktivistinnen</RN>","undefined","undefined","None","None","None","None","None","None","None","None","None","undefined","undefined","#232323","None","legacy","None","None","legacy","legacy","undefined","undefined","None","0","0","0","0","0","2","0","2","0","0","2","2","2","0","2","0","None","None","None","None","None","None","Fri Jul 24 10:13:31 2026","The main experiment item","False","None","experiment.osexp","C:\Users\sschu\Documents\GitHub\ET_course_project_gender-bias\experiment","False","mono","False","18","no","white","no","yes","1080","11","None","legacy","None","None","None","6","2","2","C:\Users\sschu\Documents\GitHub\ET_course_project_gender-bias\experiment\subject-3.csv","None","legacy","an_found","Neonatal Nightingale","4.1.9","None","None","2","0","right","NA","right","None","NA","1489.0","NA","1489","NA","None","None","None","None","None","None","None","None","None","2","legacy","1","None","Auf einer öffentlichen Veranstaltung werden aktuelle wohnungs- und gesellschaftspolitische Themen diskutiert. Die <RN>Aktivist*innen</RN> fordern mehr bezahlbaren Wohnraum in Stuttgart und diskutieren faire Lösungsansätze, doch diese <AN>Frauen</AN> sehen die Verantwortung stärker beim Bund. Die Auswirkungen der Entscheidung werden noch geprüft.","1","1024","2","48000","-16","None","None","None","None","None","None","None","experiment","3","odd","None","None","None","NA","1378","1379","4039","5529","5640","5571","5640","4038","NA","NA","NA","NA","5571","5640","4038","None","Experiment","0","0","0","0","1920","None","None","None","None"
"<AN>Frauen</AN>","C2","<RN>Dozenten</RN>","undefined","undefined","None","None","None","None","None","None","None","None","None","undefined","undefined","#232323","None","legacy","None","None","legacy","legacy","undefined","undefined","None","0","0","0","0","0","3","0","3","0","0","3","3","3","0","3","0","None","None","None","None","None","None","Fri Jul 24 10:13:31 2026","The main experiment item","False","None","experiment.osexp","C:\Users\sschu\Documents\GitHub\ET_course_project_gender-bias\experiment","False","mono","False","18","no","white","no","yes","1080","9","None","legacy","None","None","None","6","3","3","C:\Users\sschu\Documents\GitHub\ET_course_project_gender-bias\experiment\subject-3.csv","None","legacy","an_found","Neonatal Nightingale","4.1.9","None","None","2","0","right","NA","right","None","NA","1489.0","NA","1489","NA","None","None","None","None","None","None","None","None","None","2","legacy","1","None","Auf einer schulischen Tagung werden aktuelle Kontroversen rund um Vorlesungsführung und Leistungsbewertung diskutiert. Die <RN>Dozent*innen</RN> fordern erhöhte Leistungsorientierung und strengere Notenvergabe im Lehrplan, doch diese <AN>Männer</AN> stoßen dabei auf Gegendruck von Eltern. Die Debatte über das Thema hält weiter an.","1","1024","2","48000","-16","None","None","None","None","None","None","None","experiment","3","odd","None","None","None","NA","1378","1379","4039","5529","5663","5571","5663","4038","NA","NA","NA","NA","5571","5663","4038","None","Experiment","0","0","0","0","1920","None","None","None","None"
"<AN>Männer</AN>","C1","<RN>Dozenten</RN>","undefined","undefined","None","None","None","None","None","None","None","None","None","undefined","undefined","#232323","None","legacy","None","None","legacy","legacy","undefined","undefined","None","0","0","0","0","0","4","0","4","0","0","4","4","4","0","4","0","None","None","None","None","None","None","Fri Jul 24 10:13:31 2026","The main experiment item","False","None","experiment.osexp","C:\Users\sschu\Documents\GitHub\ET_course_project_gender-bias\experiment","False","mono","False","18","no","white","no","yes","1080","9","None","legacy","None","None","None","5","4","4","C:\Users\sschu\Documents\GitHub\ET_course_project_gender-bias\experiment\subject-3.csv","None","legacy","an_found","Neonatal Nightingale","4.1.9","None","None","2","0","right","NA","right","None","NA","1489.0","NA","1489","NA","None","None","None","None","None","None","None","None","None","2","legacy","1","None","Auf einer schulischen Tagung werden aktuelle Kontroversen rund um Vorlesungsführung und Leistungsbewertung diskutiert. Die <RN>Dozent*innen</RN> fordern erhöhte Leistungsorientierung und strengere Notenvergabe im Lehrplan, doch diese <AN>Männer</AN> stoßen dabei auf Gegendruck von Eltern. Die Debatte über das Thema hält weiter an.","1","1024","2","48000","-16","None","None","None","None","None","None","None","experiment","3","odd","None","None","None","NA","1378","1379","4039","5529","5689","5571","5689","4038","NA","NA","NA","NA","5571","5689","4038","None","Experiment","0","0","0","0","1920","None","None","None","None"
"<AN>Frauen</AN>","C2","<RN>Polizisten</RN>","undefined","undefined","None","None","None","None","None","None","None","None","None","undefined","undefined","#232323","None","legacy","None","None","legacy","legacy","undefined","undefined","None","0","0","0","0","0","5","0","5","0","0","5","5","5","0","5","0","None","None","None","None","None","None","Fri Jul 24 10:13:31 2026","The main experiment item","False","None","experiment.osexp","C:\Users\sschu\Documents\GitHub\ET_course_project_gender-bias\experiment","False","mono","False","18","no","white","no","yes","1080","18","None","legacy","None","None","None","3","5","5","C:\Users\sschu\Documents\GitHub\ET_course_project_gender-bias\experiment\subject-3.csv","None","legacy","an_found","Neonatal Nightingale","4.1.9","None","None","2","0","right","NA","right","None","NA","1489.0","NA","1489","NA","None","None","None","None","None","None","None","None","None","2","legacy","1","None","Bei einer öffentlichen Sitzung im Rathaus wird über neue Verkehrsregelungen gesprochen. Die <RN>Polizistinnen</RN> diskutieren laut über mehr Sicherheit im Straßenverkehr und setzen sich für strengere Kontrollen ein, doch diese <AN>Männer</AN> lehnen die Vorschläge ab. Die nächsten Maßnahmen werden derzeit kontrovers verhandelt.","1","1024","2","48000","-16","None","None","None","None","None","None","None","experiment","3","odd","None","None","None","NA","1378","1379","4039","5529","5712","5571","5712","4038","NA","NA","NA","NA","5571","5712","4038","None","Experiment","0","0","0","0","1920","None","None","None","None"
"<AN>Frauen</AN>","C2","<RN>Einwohner</RN>","undefined","undefined","None","None","None","None","None","None","None","None","None","undefined","undefined","#232323","None","legacy","None","None","legacy","legacy","undefined","undefined","None","0","0","0","0","0","6","0","6","0","0","6","6","6","0","6","0","None","None","None","None","None","None","Fri Jul 24 10:13:31 2026","The main experiment item","False","None","experiment.osexp","C:\Users\sschu\Documents\GitHub\ET_course_project_gender-bias\experiment","False","mono","False","18","no","white","no","yes","1080","13","None","legacy","None","None","None","2","6","6","C:\Users\sschu\Documents\GitHub\ET_course_project_gender-bias\experiment\subject-3.csv","None","legacy","an_found","Neonatal Nightingale","4.1.9","None","None","2","0","right","NA","right","None","NA","1489.0","NA","1489","NA","None","None","None","None","None","None","None","None","None","2","legacy","1","None","Im Rahmen einer öffentlichen Veranstaltung wird über Sicherheit, gesellschaftlichen Zusammenhalt und politische Reformen gesprochen. Die <RN>Bürgerinnen</RN> wünschen sich mehr Sicherheit und verlässliche Perspektiven, doch diese Gruppe von <AN>Frauen</AN> sieht Reformbedarf im System. Die weitere Entwicklung bleibt Gegenstand öffentlicher Debatten.","1","1024","2","48000","-16","None","None","None","None","None","None","None","experiment","3","odd","None","None","None","NA","1378","1379","4039","5529","5736","5571","5736","4038","NA","NA","NA","NA","5571","5736","4038","None","Experiment","0","0","0","0","1920","None","None","None","None"
"<AN>Frauen</AN>","C2","<RN>Experten</RN>","undefined","undefined","True","53","4","<AN>Frauen</AN>","132","-223.0","-91.0","61.0","114.0","undefined","undefined","#232323","1620","legacy","True","bewertet","legacy","legacy","undefined","undefined","undefined","0","0","0","0","0","7","0","7","0","0","7","7","7","0","7","0","50","-810.0","-270.5","5","959.0","97.80209609205725","Fri Jul 24 10:13:31 2026","The main experiment item","False","Auf einer öffentlichen Veranstaltung stehen Investitionen und langfristige gesellschaftliche Entwicklungen zur Diskussion. Die <RN>Experten</RN> unterstützen höhere Investitionen und langfristige Entwicklungen, doch diese <AN>Frauen</AN> kritisieren die Umsetzung. Die politischen Folgen werden unterschiedlich bewertet.","experiment.osexp","C:\Users\sschu\Documents\GitHub\ET_course_project_gender-bias\experiment","False","mono","False","39","no","white","no","yes","1080","14","right","legacy","178.0","3.0","117","1","7","7","C:\Users\sschu\Documents\GitHub\ET_course_project_gender-bias\experiment\subject-3.csv","150","legacy","an_found","Neonatal Nightingale","4.1.9","371.0","178.0","2","0","right","NA","right","right","right","4217.0","NA","1489","4217","True","53","3","<RN>Experten</RN>","179","-810.0","-631.0","-56.0","-3.0","2","legacy","1","Auf einer öffentlichen Veranstaltung stehen Investitionen und langfristige gesellschaftliche Entwicklungen zur Diskussion. Die <RN>Fachfrauen</RN> unterstützen höhere Investitionen und langfristige Entwicklungen, doch diese <AN>Männer</AN> kritisieren die Umsetzung. Die politischen Folgen werden unterschiedlich bewertet.","Auf einer öffentlichen Veranstaltung stehen Investitionen und langfristige gesellschaftliche Entwicklungen zur Diskussion. Die <RN>Fachfrauen</RN> unterstützen höhere Investitionen und langfristige Entwicklungen, doch diese <AN>Männer</AN> kritisieren die Umsetzung. Die politischen Folgen werden unterschiedlich bewertet.","0","1024","2","48000","-16","53","4","132","-91.0","41.0","61.0","114.0","experiment","3","odd","5767.0","-810.0","-290.0","NA","1378","1379","4039","5529","5758","5571","13341","4038","NA","13299","9081","5758","5571","5758","4038","9079","Experiment","0","0","0","1","1920","bewertet.","53","25","197"
"<AN>Männer</AN>","C1","<RN>Unternehmer</RN>","undefined","undefined","True","53","4","<AN>Frauen</AN>","132","-223.0","-91.0","61.0","114.0","undefined","undefined","#232323","1620","legacy","True","bewertet","legacy","legacy","undefined","undefined","undefined","0","0","0","0","0","8","0","8","0","0","8","8","8","0","8","0","50","-810.0","-270.5","5","959.0","97.80209609205725","Fri Jul 24 10:13:31 2026","The main experiment item","False","Auf einer öffentlichen Veranstaltung stehen Investitionen und langfristige gesellschaftliche Entwicklungen zur Diskussion. Die <RN>Experten</RN> unterstützen höhere Investitionen und langfristige Entwicklungen, doch diese <AN>Frauen</AN> kritisieren die Umsetzung. Die politischen Folgen werden unterschiedlich bewertet.","experiment.osexp","C:\Users\sschu\Documents\GitHub\ET_course_project_gender-bias\experiment","False","mono","False","39","no","white","no","yes","1080","4","right","legacy","178.0","3.0","117","4","8","8","C:\Users\sschu\Documents\GitHub\ET_course_project_gender-bias\experiment\subject-3.csv","150","legacy","an_found","Neonatal Nightingale","4.1.9","371.0","178.0","2","0","right","NA","right","right","right","4217.0","NA","1489","4217","True","53","3","<RN>Experten</RN>","179","-810.0","-631.0","-56.0","-3.0","2","legacy","1","Auf einer öffentlichen Veranstaltung stehen Investitionen und langfristige gesellschaftliche Entwicklungen zur Diskussion. Die <RN>Fachfrauen</RN> unterstützen höhere Investitionen und langfristige Entwicklungen, doch diese <AN>Männer</AN> kritisieren die Umsetzung. Die politischen Folgen werden unterschiedlich bewertet.","Bei einem Networking-Event stehen wirtschaftspolitische und gesellschaftliche Fragestellungen im Mittelpunkt der Diskussion. Die <RN>Unternehmer</RN> brauchen weniger bürokratische Hürden und sprechen über Verbesserungen, doch diese <AN>Männer</AN> fordern weitere steuerliche Entlastungen. Die Folgen dieser Positionen bleiben umstritten.","1","1024","2","48000","-16","53","4","132","-91.0","41.0","61.0","114.0","experiment","3","odd","5767.0","-810.0","-290.0","NA","1378","1379","4039","5529","13375","5571","13375","4038","NA","13299","9081","5758","5571","13375","4038","9079","Experiment","0","0","0","1","1920","bewertet.","53","25","197"
"<AN>Männer</AN>","C5","<RN>Krankenpfleger*innen</RN>","undefined","undefined","True","53","4","<AN>Frauen</AN>","132","-223.0","-91.0","61.0","114.0","undefined","undefined","#232323","1620","legacy","True","bewertet","legacy","legacy","undefined","undefined","undefined","0","0","0","0","0","9","0","9","0","0","9","9","9","0","9","0","50","-810.0","-270.5","5","959.0","97.80209609205725","Fri Jul 24 10:13:31 2026","The main experiment item","False","Auf einer öffentlichen Veranstaltung stehen Investitionen und langfristige gesellschaftliche Entwicklungen zur Diskussion. Die <RN>Experten</RN> unterstützen höhere Investitionen und langfristige Entwicklungen, doch diese <AN>Frauen</AN> kritisieren die Umsetzung. Die politischen Folgen werden unterschiedlich bewertet.","experiment.osexp","C:\Users\sschu\Documents\GitHub\ET_course_project_gender-bias\experiment","False","mono","False","39","no","white","no","yes","1080","16","right","legacy","178.0","3.0","117","2","9","9","C:\Users\sschu\Documents\GitHub\ET_course_project_gender-bias\experiment\subject-3.csv","150","legacy","an_found","Neonatal Nightingale","4.1.9","371.0","178.0","2","0","right","NA","right","right","right","4217.0","NA","1489","4217","True","53","3","<RN>Experten</RN>","179","-810.0","-631.0","-56.0","-3.0","2","legacy","1","Auf einer öffentlichen Veranstaltung stehen Investitionen und langfristige gesellschaftliche Entwicklungen zur Diskussion. Die <RN>Fachfrauen</RN> unterstützen höhere Investitionen und langfristige Entwicklungen, doch diese <AN>Männer</AN> kritisieren die Umsetzung. Die politischen Folgen werden unterschiedlich bewertet.","Bei einer Informationsveranstaltung im Krankenhaus wird über aktuelle Impfreformen und deren Auswirkungen gesprochen. Die <RN>Krankenschwestern</RN> diskutieren über Long Covid und setzen sich für mehr Unterstützung ein, doch diese <AN>Männer</AN> lehnen die Vorschläge ab. Die nächsten Schritte werden derzeit kontrovers diskutiert.","1","1024","2","48000","-16","53","4","132","-91.0","41.0","61.0","114.0","experiment","3","odd","5767.0","-810.0","-290.0","NA","1378","1379","4039","5529","13397","5571","13397","4038","NA","13299","9081","5758","5571","13397","4038","9079","Experiment","0","0","0","1","1920","bewertet.","53","25","197"
"<AN>Frauen</AN>","C6","<RN>Einwohner*innen</RN>","undefined","undefined","True","53","4","<AN>Frauen</AN>","132","-223.0","-91.0","61.0","114.0","undefined","undefined","#232323","1620","legacy","True","bewertet","legacy","legacy","undefined","undefined","undefined","0","0","0","0","0","10","0","10","0","0","10","10","10","0","10","0","50","-810.0","-270.5","5","959.0","97.80209609205725","Fri Jul 24 10:13:31 2026","The main experiment item","False","Auf einer öffentlichen Veranstaltung stehen Investitionen und langfristige gesellschaftliche Entwicklungen zur Diskussion. Die <RN>Experten</RN> unterstützen höhere Investitionen und langfristige Entwicklungen, doch diese <AN>Frauen</AN> kritisieren die Umsetzung. Die politischen Folgen werden unterschiedlich bewertet.","experiment.osexp","C:\Users\sschu\Documents\GitHub\ET_course_project_gender-bias\experiment","False","mono","False","39","no","white","no","yes","1080","13","right","legacy","178.0","3.0","117","6","10","10","C:\Users\sschu\Documents\GitHub\ET_course_project_gender-bias\experiment\subject-3.csv","150","legacy","an_found","Neonatal Nightingale","4.1.9","371.0","178.0","2","0","right","NA","right","right","right","4217.0","NA","1489","4217","True","53","3","<RN>Experten</RN>","179","-810.0","-631.0","-56.0","-3.0","2","legacy","1","Auf einer öffentlichen Veranstaltung stehen Investitionen und langfristige gesellschaftliche Entwicklungen zur Diskussion. Die <RN>Fachfrauen</RN> unterstützen höhere Investitionen und langfristige Entwicklungen, doch diese <AN>Männer</AN> kritisieren die Umsetzung. Die politischen Folgen werden unterschiedlich bewertet.","Im Rahmen einer öffentlichen Veranstaltung wird über Sicherheit, gesellschaftlichen Zusammenhalt und politische Reformen gesprochen. Die <RN>Bürgerinnen</RN> wünschen sich Sicherheit und verlässliche Perspektiven, doch diese Gruppe von <AN>Frauen</AN> sieht Reformbedarf im System. Die weitere Entwicklung bleibt Gegenstand öffentlicher Debatten.","1","1024","2","48000","-16","53","4","132","-91.0","41.0","61.0","114.0","experiment","3","odd","5767.0","-810.0","-290.0","NA","1378","1379","4039","5529","13421","5571","13421","4038","NA","13299","9081","5758","5571","13421","4038","9079","Experiment","0","0","0","1","1920","bewertet.","53","25","197"
"<AN>Frauen</AN>","C2","<RN>Professoren</RN>","undefined","undefined","True","53","4","<AN>Frauen</AN>","132","-223.0","-91.0","61.0","114.0","undefined","undefined","#232323","1620","legacy","True","bewertet","legacy","legacy","undefined","undefined","undefined","0","0","0","0","0","11","0","11","0","0","11","11","11","0","11","0","50","-810.0","-270.5","5","959.0","97.80209609205725","Fri Jul 24 10:13:31 2026","The main experiment item","False","Auf einer öffentlichen Veranstaltung stehen Investitionen und langfristige gesellschaftliche Entwicklungen zur Diskussion. Die <RN>Experten</RN> unterstützen höhere Investitionen und langfristige Entwicklungen, doch diese <AN>Frauen</AN> kritisieren die Umsetzung. Die politischen Folgen werden unterschiedlich bewertet.","experiment.osexp","C:\Users\sschu\Documents\GitHub\ET_course_project_gender-bias\experiment","False","mono","False","39","no","white","no","yes","1080","15","right","legacy","178.0","3.0","117","6","11","11","C:\Users\sschu\Documents\GitHub\ET_course_project_gender-bias\experiment\subject-3.csv","150","legacy","an_found","Neonatal Nightingale","4.1.9","371.0","178.0","2","0","right","NA","right","right","right","4217.0","NA","1489","4217","True","53","3","<RN>Experten</RN>","179","-810.0","-631.0","-56.0","-3.0","2","legacy","1","Auf einer öffentlichen Veranstaltung stehen Investitionen und langfristige gesellschaftliche Entwicklungen zur Diskussion. Die <RN>Fachfrauen</RN> unterstützen höhere Investitionen und langfristige Entwicklungen, doch diese <AN>Männer</AN> kritisieren die Umsetzung. Die politischen Folgen werden unterschiedlich bewertet.","Im Rahmen einer öffentlichen Veranstaltung wird über die Zukunft der Hochschulen und die Forschungsförderung diskutiert. Die <RN>Professorinnen</RN> diskutieren über die Zukunft der Hochschulen und setzen sich für mehr Forschungsgelder ein, doch diese <AN>Männer</AN> lehnen die Vorschläge ab. Die nächsten Schritte werden derzeit kontrovers diskutiert.","1","1024","2","48000","-16","53","4","132","-91.0","41.0","61.0","114.0","experiment","3","odd","5767.0","-810.0","-290.0","NA","1378","1379","4039","5529","13443","5571","13443","4038","NA","13299","9081","5758","5571","13443","4038","9079","Experiment","0","0","0","1","1920","bewertet.","53","25","197"
"<AN>Frauen</AN>","C4","<RN>Expertinnen</RN>","undefined","undefined","True","53","4","<AN>Frauen</AN>","132","-223.0","-91.0","61.0","114.0","undefined","undefined","#232323","1620","legacy","True","bewertet","legacy","legacy","undefined","undefined","undefined","0","0","0","0","0","12","0","12","0","0","12","12","12","0","12","0","50","-810.0","-270.5","5","959.0","97.80209609205725","Fri Jul 24 10:13:31 2026","The main experiment item","False","Auf einer öffentlichen Veranstaltung stehen Investitionen und langfristige gesellschaftliche Entwicklungen zur Diskussion. Die <RN>Experten</RN> unterstützen höhere Investitionen und langfristige Entwicklungen, doch diese <AN>Frauen</AN> kritisieren die Umsetzung. Die politischen Folgen werden unterschiedlich bewertet.","experiment.osexp","C:\Users\sschu\Documents\GitHub\ET_course_project_gender-bias\experiment","False","mono","False","39","no","white","no","yes","1080","7","right","legacy","178.0","3.0","117","4","12","12","C:\Users\sschu\Documents\GitHub\ET_course_project_gender-bias\experiment\subject-3.csv","150","legacy","an_found","Neonatal Nightingale","4.1.9","371.0","178.0","2","0","right","NA","right","right","right","4217.0","NA","1489","4217","True","53","3","<RN>Experten</RN>","179","-810.0","-631.0","-56.0","-3.0","2","legacy","1","Auf einer öffentlichen Veranstaltung stehen Investitionen und langfristige gesellschaftliche Entwicklungen zur Diskussion. Die <RN>Fachfrauen</RN> unterstützen höhere Investitionen und langfristige Entwicklungen, doch diese <AN>Männer</AN> kritisieren die Umsetzung. Die politischen Folgen werden unterschiedlich bewertet.","Beim Sommerfest eines Unternehmens wird über wirtschaftliche Entwicklungen und gesellschaftliche Herausforderungen diskutiert. Die <RN>Fachleute</RN> sehen große Herausforderungen im nächsten Geschäftsjahr, dennoch bleiben diese <AN>Männer</AN> optimistisch. Die unternehmerischen Folgen werden unterschiedlich bewertet.","1","1024","2","48000","-16","53","4","132","-91.0","41.0","61.0","114.0","experiment","3","odd","5767.0","-810.0","-290.0","NA","1378","1379","4039","5529","13467","5571","13467","4038","NA","13299","9081","5758","5571","13467","4038","9079","Experiment","0","0","0","1","1920","bewertet.","53","25","197"
"<AN>Männer</AN>","C3","<RN>Pflegerinnen</RN>","undefined","undefined","True","53","4","<AN>Frauen</AN>","132","-223.0","-91.0","61.0","114.0","undefined","undefined","#232323","1620","legacy","True","bewertet","legacy","legacy","undefined","undefined","undefined","0","0","0","0","0","13","0","13","0","0","13","13","13","0","13","0","50","-810.0","-270.5","5","959.0","97.80209609205725","Fri Jul 24 10:13:31 2026","The main experiment item","False","Auf einer öffentlichen Veranstaltung stehen Investitionen und langfristige gesellschaftliche Entwicklungen zur Diskussion. Die <RN>Experten</RN> unterstützen höhere Investitionen und langfristige Entwicklungen, doch diese <AN>Frauen</AN> kritisieren die Umsetzung. Die politischen Folgen werden unterschiedlich bewertet.","experiment.osexp","C:\Users\sschu\Documents\GitHub\ET_course_project_gender-bias\experiment","False","mono","False","39","no","white","no","yes","1080","2","right","legacy","178.0","3.0","117","2","13","13","C:\Users\sschu\Documents\GitHub\ET_course_project_gender-bias\experiment\subject-3.csv","150","legacy","an_found","Neonatal Nightingale","4.1.9","371.0","178.0","2","0","right","NA","right","right","right","4217.0","NA","1489","4217","True","53","3","<RN>Experten</RN>","179","-810.0","-631.0","-56.0","-3.0","2","legacy","1","Auf einer öffentlichen Veranstaltung stehen Investitionen und langfristige gesellschaftliche Entwicklungen zur Diskussion. Die <RN>Fachfrauen</RN> unterstützen höhere Investitionen und langfristige Entwicklungen, doch diese <AN>Männer</AN> kritisieren die Umsetzung. Die politischen Folgen werden unterschiedlich bewertet.","Im Rahmen einer Gesprächsrunde im Gesundheitswesen wird derzeit über aktuelle gesellschaftliche Herausforderungen diskutiert. Die <RN>Pflegekräfte</RN> verdienen bessere Arbeitsbedingungen und benötigen mehr Unterstützung, doch diese <AN>Männer</AN> fühlen sich politisch nicht ausreichend unterstützt. Die nächsten Schritte werden derzeit kontrovers diskutiert.","1","1024","2","48000","-16","53","4","132","-91.0","41.0","61.0","114.0","experiment","3","odd","5767.0","-810.0","-290.0","NA","1378","1379","4039","5529","13491","5571","13491","4038","NA","13299","9081","5758","5571","13491","4038","9079","Experiment","0","0","0","1","1920","bewertet.","53","25","197"
"<AN>Männer</AN>","C3","<RN>Expertinnen</RN>","undefined","undefined","True","53","4","<AN>Frauen</AN>","132","-223.0","-91.0","61.0","114.0","undefined","undefined","#232323","1620","legacy","True","bewertet","legacy","legacy","undefined","undefined","undefined","0","0","0","0","0","14","0","14","0","0","14","14","14","0","14","0","50","-810.0","-270.5","5","959.0","97.80209609205725","Fri Jul 24 10:13:31 2026","The main experiment item","False","Auf einer öffentlichen Veranstaltung stehen Investitionen und langfristige gesellschaftliche Entwicklungen zur Diskussion. Die <RN>Experten</RN> unterstützen höhere Investitionen und langfristige Entwicklungen, doch diese <AN>Frauen</AN> kritisieren die Umsetzung. Die politischen Folgen werden unterschiedlich bewertet.","experiment.osexp","C:\Users\sschu\Documents\GitHub\ET_course_project_gender-bias\experiment","False","mono","False","39","no","white","no","yes","1080","7","right","legacy","178.0","3.0","117","3","14","14","C:\Users\sschu\Documents\GitHub\ET_course_project_gender-bias\experiment\subject-3.csv","150","legacy","an_found","Neonatal Nightingale","4.1.9","371.0","178.0","2","0","right","NA","right","right","right","4217.0","NA","1489","4217","True","53","3","<RN>Experten</RN>","179","-810.0","-631.0","-56.0","-3.0","2","legacy","1","Auf einer öffentlichen Veranstaltung stehen Investitionen und langfristige gesellschaftliche Entwicklungen zur Diskussion. Die <RN>Fachfrauen</RN> unterstützen höhere Investitionen und langfristige Entwicklungen, doch diese <AN>Männer</AN> kritisieren die Umsetzung. Die politischen Folgen werden unterschiedlich bewertet.","Beim Sommerfest eines Unternehmens wird über wirtschaftliche Entwicklungen und gesellschaftliche Herausforderungen diskutiert. Die <RN>Fachleute</RN> sehen große Herausforderungen im nächsten Geschäftsjahr, dennoch bleiben diese <AN>Männer</AN> optimistisch. Die unternehmerischen Folgen werden unterschiedlich bewertet.","1","1024","2","48000","-16","53","4","132","-91.0","41.0","61.0","114.0","experiment","3","odd","5767.0","-810.0","-290.0","NA","1378","1379","4039","5529","13515","5571","13515","4038","NA","13299","9081","5758","5571","13515","4038","9079","Experiment","0","0","0","1","1920","bewertet.","53","25","197"
"<AN>Frauen</AN>","C6","<RN>Polizist*innen</RN>","undefined","undefined","True","53","4","<AN>Frauen</AN>","132","-202.0","-70.0","61.0","114.0","undefined","undefined","#232323","1620","legacy","True","verhandelt","legacy","legacy","undefined","undefined","undefined","0","0","0","0","0","15","0","15","0","0","15","15","15","0","15","0","50","-810.0","-270.5","5","1026.0","99.57534835490158","Fri Jul 24 10:13:31 2026","The main experiment item","False","Bei einer öffentlichen Sitzung im Rathaus wird über neue Verkehrsregelungen gesprochen. Die <RN>Polizist*innen</RN> diskutieren laut über mehr Sicherheit im Straßenverkehr und setzen sich für strengere Kontrollen ein, doch diese <AN>Frauen</AN> lehnen die Vorschläge ab. Die nächsten Maßnahmen werden derzeit kontrovers verhandelt.","experiment.osexp","C:\Users\sschu\Documents\GitHub\ET_course_project_gender-bias\experiment","False","mono","False","39","no","white","no","yes","1080","18","right","legacy","178.0","3.0","117","1","15","15","C:\Users\sschu\Documents\GitHub\ET_course_project_gender-bias\experiment\subject-3.csv","150","legacy","an_found","Neonatal Nightingale","4.1.9","485.0","178.0","2","0","right","NA","right","right","right","798.0","NA","1489","798","True","53","2","<RN>Polizist*innen</RN>","317","-13.0","304.0","-173.0","-120.0","2","legacy","1","Bei einer öffentlichen Sitzung im Rathaus wird über neue Verkehrsregelungen gesprochen. Die <RN>Polizistinnen</RN> diskutieren laut über mehr Sicherheit im Straßenverkehr und setzen sich für strengere Kontrollen ein, doch diese <AN>Männer</AN> lehnen die Vorschläge ab. Die nächsten Maßnahmen werden derzeit kontrovers verhandelt.","Bei einer öffentlichen Sitzung im Rathaus wird über neue Verkehrsregelungen gesprochen. Die <RN>Polizistinnen</RN> diskutieren laut über mehr Sicherheit im Straßenverkehr und setzen sich für strengere Kontrollen ein, doch diese <AN>Männer</AN> lehnen die Vorschläge ab. Die nächsten Maßnahmen werden derzeit kontrovers verhandelt.","0","1024","2","48000","-16","53","4","132","-70.0","62.0","61.0","114.0","experiment","3","odd","13549.0","-810.0","-290.0","NA","1378","1379","4039","5529","13544","5571","18261","4038","NA","18219","17420","13544","5571","13543","4038","17418","Experiment","0","0","0","2","1920","verhandelt.","53","25","244"
"<AN>Frauen</AN>","C2","<RN>Einwohner</RN>","undefined","undefined","True","53","4","<AN>Frauen</AN>","132","-179.0","-47.0","61.0","114.0","undefined","undefined","#232323","1620","legacy","True","Reaktionen","legacy","legacy","undefined","undefined","undefined","0","0","0","0","0","16","0","16","0","0","16","16","16","0","16","0","50","-810.0","-270.5","5","893.0","98.56596775763936","Fri Jul 24 10:13:31 2026","The main experiment item","False","Im Rahmen einer öffentlichen Veranstaltung wird derzeit über Fragen der inneren Sicherheit und gesellschaftliche Entwicklungen gesprochen. Die <RN>Einwohner</RN> diskutieren über Fragen der inneren Sicherheit bezüglich der aktuellen Krise, doch diese <AN>Frauen</AN> fordern härtere Maßnahmen. Die weiteren Maßnahmen stoßen auf geteilte Reaktionen.","experiment.osexp","C:\Users\sschu\Documents\GitHub\ET_course_project_gender-bias\experiment","False","mono","False","39","no","white","no","yes","1080","8","right","legacy","178.0","3.0","117","1","16","16","C:\Users\sschu\Documents\GitHub\ET_course_project_gender-bias\experiment\subject-3.csv","150","legacy","an_found","Neonatal Nightingale","4.1.9","350.0","178.0","2","0","right","NA","right","right","right","1873.0","NA","1489","1873","True","53","3","<RN>Einwohner</RN>","202","-810.0","-608.0","-56.0","-3.0","2","legacy","1","Im Rahmen einer öffentlichen Veranstaltung wird derzeit über Fragen der inneren Sicherheit und gesellschaftliche Entwicklungen gesprochen. Die <RN>Bürger</RN> diskutieren über Fragen der inneren Sicherheit bezüglich der aktuellen Krise, doch diese <AN>Männer</AN> fordern härtere Maßnahmen. Die weiteren Maßnahmen stoßen auf geteilte Reaktionen.","Im Rahmen einer öffentlichen Veranstaltung wird derzeit über Fragen der inneren Sicherheit und gesellschaftliche Entwicklungen gesprochen. Die <RN>Bürger</RN> diskutieren über Fragen der inneren Sicherheit bezüglich der aktuellen Krise, doch diese <AN>Männer</AN> fordern härtere Maßnahmen. Die weiteren Maßnahmen stoßen auf geteilte Reaktionen.","0","1024","2","48000","-16","53","4","132","-47.0","85.0","61.0","114.0","experiment","3","odd","18289.0","-810.0","-290.0","NA","1378","1379","4039","5529","18284","5571","23436","4038","NA","23394","21520","18284","5571","18283","4038","21518","Experiment","0","0","0","3","1920","Reaktionen.","53","25","242"
"<AN>Männer</AN>","C1","<RN>Professoren</RN>","undefined","undefined","True","53","4","<AN>Frauen</AN>","132","-179.0","-47.0","61.0","114.0","undefined","undefined","#232323","1620","legacy","True","Reaktionen","legacy","legacy","undefined","undefined","undefined","0","0","0","0","0","17","0","17","0","0","17","17","17","0","17","0","50","-810.0","-270.5","5","893.0","98.56596775763936","Fri Jul 24 10:13:31 2026","The main experiment item","False","Im Rahmen einer öffentlichen Veranstaltung wird derzeit über Fragen der inneren Sicherheit und gesellschaftliche Entwicklungen gesprochen. Die <RN>Einwohner</RN> diskutieren über Fragen der inneren Sicherheit bezüglich der aktuellen Krise, doch diese <AN>Frauen</AN> fordern härtere Maßnahmen. Die weiteren Maßnahmen stoßen auf geteilte Reaktionen.","experiment.osexp","C:\Users\sschu\Documents\GitHub\ET_course_project_gender-bias\experiment","False","mono","False","39","no","white","no","yes","1080","15","right","legacy","178.0","3.0","117","5","17","17","C:\Users\sschu\Documents\GitHub\ET_course_project_gender-bias\experiment\subject-3.csv","150","legacy","an_found","Neonatal Nightingale","4.1.9","350.0","178.0","2","0","right","NA","right","right","right","1873.0","NA","1489","1873","True","53","3","<RN>Einwohner</RN>","202","-810.0","-608.0","-56.0","-3.0","2","legacy","1","Im Rahmen einer öffentlichen Veranstaltung wird derzeit über Fragen der inneren Sicherheit und gesellschaftliche Entwicklungen gesprochen. Die <RN>Bürger</RN> diskutieren über Fragen der inneren Sicherheit bezüglich der aktuellen Krise, doch diese <AN>Männer</AN> fordern härtere Maßnahmen. Die weiteren Maßnahmen stoßen auf geteilte Reaktionen.","Im Rahmen einer öffentlichen Veranstaltung wird über die Zukunft der Hochschulen und die Forschungsförderung diskutiert. Die <RN>Professorinnen</RN> diskutieren über die Zukunft der Hochschulen und setzen sich für mehr Forschungsgelder ein, doch diese <AN>Männer</AN> lehnen die Vorschläge ab. Die nächsten Schritte werden derzeit kontrovers diskutiert.","1","1024","2","48000","-16","53","4","132","-47.0","85.0","61.0","114.0","experiment","3","odd","18289.0","-810.0","-290.0","NA","1378","1379","4039","5529","23459","5571","23460","4038","NA","23394","21520","18284","5571","23459","4038","21518","Experiment","0","0","0","3","1920","Reaktionen.","53","25","242"
"<AN>Männer</AN>","C5","<RN>Ingenieur*innen</RN>","undefined","undefined","True","53","4","<AN>Frauen</AN>","132","-179.0","-47.0","61.0","114.0","undefined","undefined","#232323","1620","legacy","True","Reaktionen","legacy","legacy","undefined","undefined","undefined","0","0","0","0","0","18","0","18","0","0","18","18","18","0","18","0","50","-810.0","-270.5","5","893.0","98.56596775763936","Fri Jul 24 10:13:31 2026","The main experiment item","False","Im Rahmen einer öffentlichen Veranstaltung wird derzeit über Fragen der inneren Sicherheit und gesellschaftliche Entwicklungen gesprochen. Die <RN>Einwohner</RN> diskutieren über Fragen der inneren Sicherheit bezüglich der aktuellen Krise, doch diese <AN>Frauen</AN> fordern härtere Maßnahmen. Die weiteren Maßnahmen stoßen auf geteilte Reaktionen.","experiment.osexp","C:\Users\sschu\Documents\GitHub\ET_course_project_gender-bias\experiment","False","mono","False","39","no","white","no","yes","1080","3","right","legacy","178.0","3.0","117","3","18","18","C:\Users\sschu\Documents\GitHub\ET_course_project_gender-bias\experiment\subject-3.csv","150","legacy","an_found","Neonatal Nightingale","4.1.9","350.0","178.0","2","0","right","NA","right","right","right","1873.0","NA","1489","1873","True","53","3","<RN>Einwohner</RN>","202","-810.0","-608.0","-56.0","-3.0","2","legacy","1","Im Rahmen einer öffentlichen Veranstaltung wird derzeit über Fragen der inneren Sicherheit und gesellschaftliche Entwicklungen gesprochen. Die <RN>Bürger</RN> diskutieren über Fragen der inneren Sicherheit bezüglich der aktuellen Krise, doch diese <AN>Männer</AN> fordern härtere Maßnahmen. Die weiteren Maßnahmen stoßen auf geteilte Reaktionen.","Auf einer wissenschaftlichen Konferenz zu technischen Zukunftsfragen werden derzeit aktuelle gesellschaftliche Themen erörtert. Die <RN>Ingenieur*innen</RN> kritisieren die Energiewende und stehen vor Herausforderungen, doch diese <AN>Frauen</AN> lehnen zusätzliche Investitionen ab. Über die Konsequenzen wird weiterhin intensiv gestritten.","1","1024","2","48000","-16","53","4","132","-47.0","85.0","61.0","114.0","experiment","3","odd","18289.0","-810.0","-290.0","NA","1378","1379","4039","5529","23482","5571","23482","4038","NA","23394","21520","18284","5571","23482","4038","21518","Experiment","0","0","0","3","1920","Reaktionen.","53","25","242"
"<AN>Männer</AN>","C1","<RN>Experten</RN>","undefined","undefined","True","53","4","<AN>Frauen</AN>","132","-179.0","-47.0","61.0","114.0","undefined","undefined","#232323","1620","legacy","True","Reaktionen","legacy","legacy","undefined","undefined","undefined","0","0","0","0","0","19","0","19","0","0","19","19","19","0","19","0","50","-810.0","-270.5","5","893.0","98.56596775763936","Fri Jul 24 10:13:31 2026","The main experiment item","False","Im Rahmen einer öffentlichen Veranstaltung wird derzeit über Fragen der inneren Sicherheit und gesellschaftliche Entwicklungen gesprochen. Die <RN>Einwohner</RN> diskutieren über Fragen der inneren Sicherheit bezüglich der aktuellen Krise, doch diese <AN>Frauen</AN> fordern härtere Maßnahmen. Die weiteren Maßnahmen stoßen auf geteilte Reaktionen.","experiment.osexp","C:\Users\sschu\Documents\GitHub\ET_course_project_gender-bias\experiment","False","mono","False","39","no","white","no","yes","1080","14","right","legacy","178.0","3.0","117","6","19","19","C:\Users\sschu\Documents\GitHub\ET_course_project_gender-bias\experiment\subject-3.csv","150","legacy","an_found","Neonatal Nightingale","4.1.9","350.0","178.0","2","0","right","NA","right","right","right","1873.0","NA","1489","1873","True","53","3","<RN>Einwohner</RN>","202","-810.0","-608.0","-56.0","-3.0","2","legacy","1","Im Rahmen einer öffentlichen Veranstaltung wird derzeit über Fragen der inneren Sicherheit und gesellschaftliche Entwicklungen gesprochen. Die <RN>Bürger</RN> diskutieren über Fragen der inneren Sicherheit bezüglich der aktuellen Krise, doch diese <AN>Männer</AN> fordern härtere Maßnahmen. Die weiteren Maßnahmen stoßen auf geteilte Reaktionen.","Auf einer öffentlichen Veranstaltung stehen Investitionen und langfristige gesellschaftliche Entwicklungen zur Diskussion. Die <RN>Fachfrauen</RN> unterstützen höhere Investitionen und langfristige Entwicklungen, doch diese <AN>Männer</AN> kritisieren die Umsetzung. Die politischen Folgen werden unterschiedlich bewertet.","1","1024","2","48000","-16","53","4","132","-47.0","85.0","61.0","114.0","experiment","3","odd","18289.0","-810.0","-290.0","NA","1378","1379","4039","5529","23506","5571","23506","4038","NA","23394","21520","18284","5571","23506","4038","21518","Experiment","0","0","0","3","1920","Reaktionen.","53","25","242"
"<AN>Männer</AN>","C5","<RN>Aktivist*innen</RN>","undefined","undefined","True","53","4","<AN>Männer</AN>","135","-201.0","-66.0","61.0","114.0","undefined","undefined","#232323","1620","legacy","True","geprüft","legacy","legacy","undefined","undefined","undefined","0","0","0","0","0","20","0","20","0","0","20","20","20","0","20","0","50","-810.0","-270.5","5","1182.0","98.8243391073272","Fri Jul 24 10:13:31 2026","The main experiment item","False","Auf einer öffentlichen Veranstaltung werden aktuelle wohnungs- und gesellschaftspolitische Themen diskutiert. Die <RN>Aktivist*innen</RN> fordern mehr bezahlbaren Wohnraum in Stuttgart und diskutieren faire Lösungsansätze, doch diese <AN>Männer</AN> sehen die Verantwortung stärker beim Bund. Die Auswirkungen der Entscheidung werden noch geprüft.","experiment.osexp","C:\Users\sschu\Documents\GitHub\ET_course_project_gender-bias\experiment","False","mono","False","39","no","white","no","yes","1080","11","right","legacy","178.0","3.0","117","1","20","20","C:\Users\sschu\Documents\GitHub\ET_course_project_gender-bias\experiment\subject-3.csv","150","legacy","an_found","Neonatal Nightingale","4.1.9","572.0","178.0","2","0","right","NA","right","right","right","10958.0","NA","1489","10958","True","53","2","<RN>Aktivist*innen</RN>","320","261.0","581.0","-173.0","-120.0","2","legacy","1","Auf einer öffentlichen Veranstaltung werden aktuelle wohnungs- und gesellschaftspolitische Themen diskutiert. Die <RN>Aktivist*innen</RN> fordern mehr bezahlbaren Wohnraum in Stuttgart und diskutieren faire Lösungsansätze, doch diese <AN>Frauen</AN> sehen die Verantwortung stärker beim Bund. Die Auswirkungen der Entscheidung werden noch geprüft.","Auf einer öffentlichen Veranstaltung werden aktuelle wohnungs- und gesellschaftspolitische Themen diskutiert. Die <RN>Aktivist*innen</RN> fordern mehr bezahlbaren Wohnraum in Stuttgart und diskutieren faire Lösungsansätze, doch diese <AN>Frauen</AN> sehen die Verantwortung stärker beim Bund. Die Auswirkungen der Entscheidung werden noch geprüft.","0","1024","2","48000","-16","53","4","135","-66.0","69.0","61.0","114.0","experiment","3","odd","23533.0","-810.0","-290.0","NA","1378","1379","4039","5529","23528","5571","38854","4038","NA","38812","27853","23528","5571","23528","4038","27851","Experiment","0","0","0","4","1920","geprüft.","53","25","175"
"<AN>Männer</AN>","C3","<RN>Ingenieurinnen</RN>","undefined","undefined","True","53","4","<AN>Männer</AN>","135","-201.0","-66.0","61.0","114.0","undefined","undefined","#232323","1620","legacy","True","geprüft","legacy","legacy","undefined","undefined","undefined","0","0","0","0","0","21","0","21","0","0","21","21","21","0","21","0","50","-810.0","-270.5","5","1182.0","98.8243391073272","Fri Jul 24 10:13:31 2026","The main experiment item","False","Auf einer öffentlichen Veranstaltung werden aktuelle wohnungs- und gesellschaftspolitische Themen diskutiert. Die <RN>Aktivist*innen</RN> fordern mehr bezahlbaren Wohnraum in Stuttgart und diskutieren faire Lösungsansätze, doch diese <AN>Männer</AN> sehen die Verantwortung stärker beim Bund. Die Auswirkungen der Entscheidung werden noch geprüft.","experiment.osexp","C:\Users\sschu\Documents\GitHub\ET_course_project_gender-bias\experiment","False","mono","False","39","no","white","no","yes","1080","17","right","legacy","178.0","3.0","117","5","21","21","C:\Users\sschu\Documents\GitHub\ET_course_project_gender-bias\experiment\subject-3.csv","150","legacy","an_found","Neonatal Nightingale","4.1.9","572.0","178.0","2","0","right","NA","right","right","right","10958.0","NA","1489","10958","True","53","2","<RN>Aktivist*innen</RN>","320","261.0","581.0","-173.0","-120.0","2","legacy","1","Auf einer öffentlichen Veranstaltung werden aktuelle wohnungs- und gesellschaftspolitische Themen diskutiert. Die <RN>Aktivist*innen</RN> fordern mehr bezahlbaren Wohnraum in Stuttgart und diskutieren faire Lösungsansätze, doch diese <AN>Frauen</AN> sehen die Verantwortung stärker beim Bund. Die Auswirkungen der Entscheidung werden noch geprüft.","Im Rahmen einer städtischen Planungsrunde wird über die zukünftige Mobilität und den Ausbau des Nahverkehrs diskutiert. Die <RN>Ingenieurinnen</RN> diskutieren über nachhaltige Verkehrskonzepte und setzen sich für den Ausbau des ÖPNV ein, doch diese <AN>Männer</AN> lehnen die Vorschläge ab. Die nächsten Schritte werden derzeit kontrovers diskutiert.","1","1024","2","48000","-16","53","4","135","-66.0","69.0","61.0","114.0","experiment","3","odd","23533.0","-810.0","-290.0","NA","1378","1379","4039","5529","38884","5571","38884","4038","NA","38812","27853","23528","5571","38884","4038","27851","Experiment","0","0","0","4","1920","geprüft.","53","25","175"
"<AN>Frauen</AN>","C4","<RN>Dozentinnen</RN>","undefined","undefined","True","53","4","<AN>Männer</AN>","135","-201.0","-66.0","61.0","114.0","undefined","undefined","#232323","1620","legacy","True","geprüft","legacy","legacy","undefined","undefined","undefined","0","0","0","0","0","22","0","22","0","0","22","22","22","0","22","0","50","-810.0","-270.5","5","1182.0","98.8243391073272","Fri Jul 24 10:13:31 2026","The main experiment item","False","Auf einer öffentlichen Veranstaltung werden aktuelle wohnungs- und gesellschaftspolitische Themen diskutiert. Die <RN>Aktivist*innen</RN> fordern mehr bezahlbaren Wohnraum in Stuttgart und diskutieren faire Lösungsansätze, doch diese <AN>Männer</AN> sehen die Verantwortung stärker beim Bund. Die Auswirkungen der Entscheidung werden noch geprüft.","experiment.osexp","C:\Users\sschu\Documents\GitHub\ET_course_project_gender-bias\experiment","False","mono","False","39","no","white","no","yes","1080","9","right","legacy","178.0","3.0","117","2","22","22","C:\Users\sschu\Documents\GitHub\ET_course_project_gender-bias\experiment\subject-3.csv","150","legacy","an_found","Neonatal Nightingale","4.1.9","572.0","178.0","2","0","right","NA","right","right","right","10958.0","NA","1489","10958","True","53","2","<RN>Aktivist*innen</RN>","320","261.0","581.0","-173.0","-120.0","2","legacy","1","Auf einer öffentlichen Veranstaltung werden aktuelle wohnungs- und gesellschaftspolitische Themen diskutiert. Die <RN>Aktivist*innen</RN> fordern mehr bezahlbaren Wohnraum in Stuttgart und diskutieren faire Lösungsansätze, doch diese <AN>Frauen</AN> sehen die Verantwortung stärker beim Bund. Die Auswirkungen der Entscheidung werden noch geprüft.","Auf einer schulischen Tagung werden aktuelle Kontroversen rund um Vorlesungsführung und Leistungsbewertung diskutiert. Die <RN>Dozent*innen</RN> fordern erhöhte Leistungsorientierung und strengere Notenvergabe im Lehrplan, doch diese <AN>Männer</AN> stoßen dabei auf Gegendruck von Eltern. Die Debatte über das Thema hält weiter an.","1","1024","2","48000","-16","53","4","135","-66.0","69.0","61.0","114.0","experiment","3","odd","23533.0","-810.0","-290.0","NA","1378","1379","4039","5529","38909","5571","38909","4038","NA","38812","27853","23528","5571","38909","4038","27851","Experiment","0","0","0","4","1920","geprüft.","53","25","175"
"<AN>Männer</AN>","C1","<RN>Arbeitnehmer</RN>","undefined","undefined","True","53","4","<AN>Männer</AN>","135","-201.0","-66.0","61.0","114.0","undefined","undefined","#232323","1620","legacy","True","geprüft","legacy","legacy","undefined","undefined","undefined","0","0","0","0","0","23","0","23","0","0","23","23","23","0","23","0","50","-810.0","-270.5","5","1182.0","98.8243391073272","Fri Jul 24 10:13:31 2026","The main experiment item","False","Auf einer öffentlichen Veranstaltung werden aktuelle wohnungs- und gesellschaftspolitische Themen diskutiert. Die <RN>Aktivist*innen</RN> fordern mehr bezahlbaren Wohnraum in Stuttgart und diskutieren faire Lösungsansätze, doch diese <AN>Männer</AN> sehen die Verantwortung stärker beim Bund. Die Auswirkungen der Entscheidung werden noch geprüft.","experiment.osexp","C:\Users\sschu\Documents\GitHub\ET_course_project_gender-bias\experiment","False","mono","False","39","no","white","no","yes","1080","5","right","legacy","178.0","3.0","117","3","23","23","C:\Users\sschu\Documents\GitHub\ET_course_project_gender-bias\experiment\subject-3.csv","150","legacy","an_found","Neonatal Nightingale","4.1.9","572.0","178.0","2","0","right","NA","right","right","right","10958.0","NA","1489","10958","True","53","2","<RN>Aktivist*innen</RN>","320","261.0","581.0","-173.0","-120.0","2","legacy","1","Auf einer öffentlichen Veranstaltung werden aktuelle wohnungs- und gesellschaftspolitische Themen diskutiert. Die <RN>Aktivist*innen</RN> fordern mehr bezahlbaren Wohnraum in Stuttgart und diskutieren faire Lösungsansätze, doch diese <AN>Frauen</AN> sehen die Verantwortung stärker beim Bund. Die Auswirkungen der Entscheidung werden noch geprüft.","Im Rahmen einer Geschäftsveranstaltung findet derzeit ein Austausch über Arbeitsbedingungen und gesellschaftliche Entwicklungen statt. Die <RN>Arbeitnehmer*innen</RN> erwarten höhere Gehälter und klimatisierte Arbeitsplätze, trotzdem wollen diese <AN>Männer</AN> auch weniger arbeiten. Die Frage nach den Konsequenzen bleibt offen.","1","1024","2","48000","-16","53","4","135","-66.0","69.0","61.0","114.0","experiment","3","odd","23533.0","-810.0","-290.0","NA","1378","1379","4039","5529","38932","5571","38932","4038","NA","38812","27853","23528","5571","38931","4038","27851","Experiment","0","0","0","4","1920","geprüft.","53","25","175"
"<AN>Frauen</AN>","C6","<RN>Krankenpfleger*innen</RN>","undefined","undefined","True","53","4","<AN>Männer</AN>","135","-201.0","-66.0","61.0","114.0","undefined","undefined","#232323","1620","legacy","True","geprüft","legacy","legacy","undefined","undefined","undefined","0","0","0","0","0","24","0","24","0","0","24","24","24","0","24","0","50","-810.0","-270.5","5","1182.0","98.8243391073272","Fri Jul 24 10:13:31 2026","The main experiment item","False","Auf einer öffentlichen Veranstaltung werden aktuelle wohnungs- und gesellschaftspolitische Themen diskutiert. Die <RN>Aktivist*innen</RN> fordern mehr bezahlbaren Wohnraum in Stuttgart und diskutieren faire Lösungsansätze, doch diese <AN>Männer</AN> sehen die Verantwortung stärker beim Bund. Die Auswirkungen der Entscheidung werden noch geprüft.","experiment.osexp","C:\Users\sschu\Documents\GitHub\ET_course_project_gender-bias\experiment","False","mono","False","39","no","white","no","yes","1080","16","right","legacy","178.0","3.0","117","3","24","24","C:\Users\sschu\Documents\GitHub\ET_course_project_gender-bias\experiment\subject-3.csv","150","legacy","an_found","Neonatal Nightingale","4.1.9","572.0","178.0","2","0","right","NA","right","right","right","10958.0","NA","1489","10958","True","53","2","<RN>Aktivist*innen</RN>","320","261.0","581.0","-173.0","-120.0","2","legacy","1","Auf einer öffentlichen Veranstaltung werden aktuelle wohnungs- und gesellschaftspolitische Themen diskutiert. Die <RN>Aktivist*innen</RN> fordern mehr bezahlbaren Wohnraum in Stuttgart und diskutieren faire Lösungsansätze, doch diese <AN>Frauen</AN> sehen die Verantwortung stärker beim Bund. Die Auswirkungen der Entscheidung werden noch geprüft.","Bei einer Informationsveranstaltung im Krankenhaus wird über aktuelle Impfreformen und deren Auswirkungen gesprochen. Die <RN>Krankenschwestern</RN> diskutieren über Long Covid und setzen sich für mehr Unterstützung ein, doch diese <AN>Männer</AN> lehnen die Vorschläge ab. Die nächsten Schritte werden derzeit kontrovers diskutiert.","1","1024","2","48000","-16","53","4","135","-66.0","69.0","61.0","114.0","experiment","3","odd","23533.0","-810.0","-290.0","NA","1378","1379","4039","5529","38954","5571","38954","4038","NA","38812","27853","23528","5571","38954","4038","27851","Experiment","0","0","0","4","1920","geprüft.","53","25","175"
"<AN>Frauen</AN>","C4","<RN>Expertinnen</RN>","undefined","undefined","True","53","4","<AN>Männer</AN>","135","-201.0","-66.0","61.0","114.0","undefined","undefined","#232323","1620","legacy","True","geprüft","legacy","legacy","undefined","undefined","undefined","0","0","0","0","0","25","0","25","0","0","25","25","25","0","25","0","50","-810.0","-270.5","5","1182.0","98.8243391073272","Fri Jul 24 10:13:31 2026","The main experiment item","False","Auf einer öffentlichen Veranstaltung werden aktuelle wohnungs- und gesellschaftspolitische Themen diskutiert. Die <RN>Aktivist*innen</RN> fordern mehr bezahlbaren Wohnraum in Stuttgart und diskutieren faire Lösungsansätze, doch diese <AN>Männer</AN> sehen die Verantwortung stärker beim Bund. Die Auswirkungen der Entscheidung werden noch geprüft.","experiment.osexp","C:\Users\sschu\Documents\GitHub\ET_course_project_gender-bias\experiment","False","mono","False","39","no","white","no","yes","1080","14","right","legacy","178.0","3.0","117","3","25","25","C:\Users\sschu\Documents\GitHub\ET_course_project_gender-bias\experiment\subject-3.csv","150","legacy","an_found","Neonatal Nightingale","4.1.9","572.0","178.0","2","0","right","NA","right","right","right","10958.0","NA","1489","10958","True","53","2","<RN>Aktivist*innen</RN>","320","261.0","581.0","-173.0","-120.0","2","legacy","1","Auf einer öffentlichen Veranstaltung werden aktuelle wohnungs- und gesellschaftspolitische Themen diskutiert. Die <RN>Aktivist*innen</RN> fordern mehr bezahlbaren Wohnraum in Stuttgart und diskutieren faire Lösungsansätze, doch diese <AN>Frauen</AN> sehen die Verantwortung stärker beim Bund. Die Auswirkungen der Entscheidung werden noch geprüft.","Auf einer öffentlichen Veranstaltung stehen Investitionen und langfristige gesellschaftliche Entwicklungen zur Diskussion. Die <RN>Fachfrauen</RN> unterstützen höhere Investitionen und langfristige Entwicklungen, doch diese <AN>Männer</AN> kritisieren die Umsetzung. Die politischen Folgen werden unterschiedlich bewertet.","1","1024","2","48000","-16","53","4","135","-66.0","69.0","61.0","114.0","experiment","3","odd","23533.0","-810.0","-290.0","NA","1378","1379","4039","5529","38978","5571","38978","4038","NA","38812","27853","23528","5571","38978","4038","27851","Experiment","0","0","0","4","1920","geprüft.","53","25","175"
"<AN>Frauen</AN>","C4","<RN>Polizistinnen</RN>","undefined","undefined","True","53","4","<AN>Männer</AN>","135","-201.0","-66.0","61.0","114.0","undefined","undefined","#232323","1620","legacy","True","geprüft","legacy","legacy","undefined","undefined","undefined","0","0","0","0","0","26","0","26","0","0","26","26","26","0","26","0","50","-810.0","-270.5","5","1182.0","98.8243391073272","Fri Jul 24 10:13:31 2026","The main experiment item","False","Auf einer öffentlichen Veranstaltung werden aktuelle wohnungs- und gesellschaftspolitische Themen diskutiert. Die <RN>Aktivist*innen</RN> fordern mehr bezahlbaren Wohnraum in Stuttgart und diskutieren faire Lösungsansätze, doch diese <AN>Männer</AN> sehen die Verantwortung stärker beim Bund. Die Auswirkungen der Entscheidung werden noch geprüft.","experiment.osexp","C:\Users\sschu\Documents\GitHub\ET_course_project_gender-bias\experiment","False","mono","False","39","no","white","no","yes","1080","18","right","legacy","178.0","3.0","117","5","26","26","C:\Users\sschu\Documents\GitHub\ET_course_project_gender-bias\experiment\subject-3.csv","150","legacy","an_found","Neonatal Nightingale","4.1.9","572.0","178.0","2","0","right","NA","right","right","right","10958.0","NA","1489","10958","True","53","2","<RN>Aktivist*innen</RN>","320","261.0","581.0","-173.0","-120.0","2","legacy","1","Auf einer öffentlichen Veranstaltung werden aktuelle wohnungs- und gesellschaftspolitische Themen diskutiert. Die <RN>Aktivist*innen</RN> fordern mehr bezahlbaren Wohnraum in Stuttgart und diskutieren faire Lösungsansätze, doch diese <AN>Frauen</AN> sehen die Verantwortung stärker beim Bund. Die Auswirkungen der Entscheidung werden noch geprüft.","Bei einer öffentlichen Sitzung im Rathaus wird über neue Verkehrsregelungen gesprochen. Die <RN>Polizistinnen</RN> diskutieren laut über mehr Sicherheit im Straßenverkehr und setzen sich für strengere Kontrollen ein, doch diese <AN>Männer</AN> lehnen die Vorschläge ab. Die nächsten Maßnahmen werden derzeit kontrovers verhandelt.","1","1024","2","48000","-16","53","4","135","-66.0","69.0","61.0","114.0","experiment","3","odd","23533.0","-810.0","-290.0","NA","1378","1379","4039","5529","39001","5571","39001","4038","NA","38812","27853","23528","5571","39001","4038","27851","Experiment","0","0","0","4","1920","geprüft.","53","25","175"
"<AN>Frauen</AN>","C6","<RN>Expert*innen</RN>","undefined","undefined","True","53","4","<AN>Männer</AN>","135","-201.0","-66.0","61.0","114.0","undefined","undefined","#232323","1620","legacy","True","geprüft","legacy","legacy","undefined","undefined","undefined","0","0","0","0","0","27","0","27","0","0","27","27","27","0","27","0","50","-810.0","-270.5","5","1182.0","98.8243391073272","Fri Jul 24 10:13:31 2026","The main experiment item","False","Auf einer öffentlichen Veranstaltung werden aktuelle wohnungs- und gesellschaftspolitische Themen diskutiert. Die <RN>Aktivist*innen</RN> fordern mehr bezahlbaren Wohnraum in Stuttgart und diskutieren faire Lösungsansätze, doch diese <AN>Männer</AN> sehen die Verantwortung stärker beim Bund. Die Auswirkungen der Entscheidung werden noch geprüft.","experiment.osexp","C:\Users\sschu\Documents\GitHub\ET_course_project_gender-bias\experiment","False","mono","False","39","no","white","no","yes","1080","14","right","legacy","178.0","3.0","117","5","27","27","C:\Users\sschu\Documents\GitHub\ET_course_project_gender-bias\experiment\subject-3.csv","150","legacy","an_found","Neonatal Nightingale","4.1.9","572.0","178.0","2","0","right","NA","right","right","right","10958.0","NA","1489","10958","True","53","2","<RN>Aktivist*innen</RN>","320","261.0","581.0","-173.0","-120.0","2","legacy","1","Auf einer öffentlichen Veranstaltung werden aktuelle wohnungs- und gesellschaftspolitische Themen diskutiert. Die <RN>Aktivist*innen</RN> fordern mehr bezahlbaren Wohnraum in Stuttgart und diskutieren faire Lösungsansätze, doch diese <AN>Frauen</AN> sehen die Verantwortung stärker beim Bund. Die Auswirkungen der Entscheidung werden noch geprüft.","Auf einer öffentlichen Veranstaltung stehen Investitionen und langfristige gesellschaftliche Entwicklungen zur Diskussion. Die <RN>Fachfrauen</RN> unterstützen höhere Investitionen und langfristige Entwicklungen, doch diese <AN>Männer</AN> kritisieren die Umsetzung. Die politischen Folgen werden unterschiedlich bewertet.","1","1024","2","48000","-16","53","4","135","-66.0","69.0","61.0","114.0","experiment","3","odd","23533.0","-810.0","-290.0","NA","1378","1379","4039","5529","39032","5571","39032","4038","NA","38812","27853","23528","5571","39032","4038","27851","Experiment","0","0","0","4","1920","geprüft.","53","25","175"
"<AN>Männer</AN>","C5","<RN>Professor*innen</RN>","undefined","undefined","True","53","4","<AN>Männer</AN>","135","-201.0","-66.0","61.0","114.0","undefined","undefined","#232323","1620","legacy","True","geprüft","legacy","legacy","undefined","undefined","undefined","0","0","0","0","0","28","0","28","0","0","28","28","28","0","28","0","50","-810.0","-270.5","5","1182.0","98.8243391073272","Fri Jul 24 10:13:31 2026","The main experiment item","False","Auf einer öffentlichen Veranstaltung werden aktuelle wohnungs- und gesellschaftspolitische Themen diskutiert. Die <RN>Aktivist*innen</RN> fordern mehr bezahlbaren Wohnraum in Stuttgart und diskutieren faire Lösungsansätze, doch diese <AN>Männer</AN> sehen die Verantwortung stärker beim Bund. Die Auswirkungen der Entscheidung werden noch geprüft.","experiment.osexp","C:\Users\sschu\Documents\GitHub\ET_course_project_gender-bias\experiment","False","mono","False","39","no","white","no","yes","1080","15","right","legacy","178.0","3.0","117","3","28","28","C:\Users\sschu\Documents\GitHub\ET_course_project_gender-bias\experiment\subject-3.csv","150","legacy","an_found","Neonatal Nightingale","4.1.9","572.0","178.0","2","0","right","NA","right","right","right","10958.0","NA","1489","10958","True","53","2","<RN>Aktivist*innen</RN>","320","261.0","581.0","-173.0","-120.0","2","legacy","1","Auf einer öffentlichen Veranstaltung werden aktuelle wohnungs- und gesellschaftspolitische Themen diskutiert. Die <RN>Aktivist*innen</RN> fordern mehr bezahlbaren Wohnraum in Stuttgart und diskutieren faire Lösungsansätze, doch diese <AN>Frauen</AN> sehen die Verantwortung stärker beim Bund. Die Auswirkungen der Entscheidung werden noch geprüft.","Im Rahmen einer öffentlichen Veranstaltung wird über die Zukunft der Hochschulen und die Forschungsförderung diskutiert. Die <RN>Professorinnen</RN> diskutieren über die Zukunft der Hochschulen und setzen sich für mehr Forschungsgelder ein, doch diese <AN>Männer</AN> lehnen die Vorschläge ab. Die nächsten Schritte werden derzeit kontrovers diskutiert.","1","1024","2","48000","-16","53","4","135","-66.0","69.0","61.0","114.0","experiment","3","odd","23533.0","-810.0","-290.0","NA","1378","1379","4039","5529","39056","5571","39056","4038","NA","38812","27853","23528","5571","39056","4038","27851","Experiment","0","0","0","4","1920","geprüft.","53","25","175"
"<AN>Frauen</AN>","C2","<RN>Arbeitnehmer</RN>","undefined","undefined","True","53","4","<AN>Männer</AN>","135","-201.0","-66.0","61.0","114.0","undefined","undefined","#232323","1620","legacy","True","geprüft","legacy","legacy","undefined","undefined","undefined","0","0","0","0","0","29","0","29","0","0","29","29","29","0","29","0","50","-810.0","-270.5","5","1182.0","98.8243391073272","Fri Jul 24 10:13:31 2026","The main experiment item","False","Auf einer öffentlichen Veranstaltung werden aktuelle wohnungs- und gesellschaftspolitische Themen diskutiert. Die <RN>Aktivist*innen</RN> fordern mehr bezahlbaren Wohnraum in Stuttgart und diskutieren faire Lösungsansätze, doch diese <AN>Männer</AN> sehen die Verantwortung stärker beim Bund. Die Auswirkungen der Entscheidung werden noch geprüft.","experiment.osexp","C:\Users\sschu\Documents\GitHub\ET_course_project_gender-bias\experiment","False","mono","False","39","no","white","no","yes","1080","5","right","legacy","178.0","3.0","117","4","29","29","C:\Users\sschu\Documents\GitHub\ET_course_project_gender-bias\experiment\subject-3.csv","150","legacy","an_found","Neonatal Nightingale","4.1.9","572.0","178.0","2","0","right","NA","right","right","right","10958.0","NA","1489","10958","True","53","2","<RN>Aktivist*innen</RN>","320","261.0","581.0","-173.0","-120.0","2","legacy","1","Auf einer öffentlichen Veranstaltung werden aktuelle wohnungs- und gesellschaftspolitische Themen diskutiert. Die <RN>Aktivist*innen</RN> fordern mehr bezahlbaren Wohnraum in Stuttgart und diskutieren faire Lösungsansätze, doch diese <AN>Frauen</AN> sehen die Verantwortung stärker beim Bund. Die Auswirkungen der Entscheidung werden noch geprüft.","Im Rahmen einer Geschäftsveranstaltung findet derzeit ein Austausch über Arbeitsbedingungen und gesellschaftliche Entwicklungen statt. Die <RN>Arbeitnehmer*innen</RN> erwarten höhere Gehälter und klimatisierte Arbeitsplätze, trotzdem wollen diese <AN>Männer</AN> auch weniger arbeiten. Die Frage nach den Konsequenzen bleibt offen.","1","1024","2","48000","-16","53","4","135","-66.0","69.0","61.0","114.0","experiment","3","odd","23533.0","-810.0","-290.0","NA","1378","1379","4039","5529","39079","5571","39079","4038","NA","38812","27853","23528","5571","39079","4038","27851","Experiment","0","0","0","4","1920","geprüft.","53","25","175"
"<AN>Frauen</AN>","C4","<RN>Pflegerinnen</RN>","undefined","undefined","True","53","4","<AN>Männer</AN>","135","-201.0","-66.0","61.0","114.0","undefined","undefined","#232323","1620","legacy","True","geprüft","legacy","legacy","undefined","undefined","undefined","0","0","0","0","0","30","0","30","0","0","30","30","30","0","30","0","50","-810.0","-270.5","5","1182.0","98.8243391073272","Fri Jul 24 10:13:31 2026","The main experiment item","False","Auf einer öffentlichen Veranstaltung werden aktuelle wohnungs- und gesellschaftspolitische Themen diskutiert. Die <RN>Aktivist*innen</RN> fordern mehr bezahlbaren Wohnraum in Stuttgart und diskutieren faire Lösungsansätze, doch diese <AN>Männer</AN> sehen die Verantwortung stärker beim Bund. Die Auswirkungen der Entscheidung werden noch geprüft.","experiment.osexp","C:\Users\sschu\Documents\GitHub\ET_course_project_gender-bias\experiment","False","mono","False","39","no","white","no","yes","1080","2","right","legacy","178.0","3.0","117","3","30","30","C:\Users\sschu\Documents\GitHub\ET_course_project_gender-bias\experiment\subject-3.csv","150","legacy","an_found","Neonatal Nightingale","4.1.9","572.0","178.0","2","0","right","NA","right","right","right","10958.0","NA","1489","10958","True","53","2","<RN>Aktivist*innen</RN>","320","261.0","581.0","-173.0","-120.0","2","legacy","1","Auf einer öffentlichen Veranstaltung werden aktuelle wohnungs- und gesellschaftspolitische Themen diskutiert. Die <RN>Aktivist*innen</RN> fordern mehr bezahlbaren Wohnraum in Stuttgart und diskutieren faire Lösungsansätze, doch diese <AN>Frauen</AN> sehen die Verantwortung stärker beim Bund. Die Auswirkungen der Entscheidung werden noch geprüft.","Im Rahmen einer Gesprächsrunde im Gesundheitswesen wird derzeit über aktuelle gesellschaftliche Herausforderungen diskutiert. Die <RN>Pflegekräfte</RN> verdienen bessere Arbeitsbedingungen und benötigen mehr Unterstützung, doch diese <AN>Männer</AN> fühlen sich politisch nicht ausreichend unterstützt. Die nächsten Schritte werden derzeit kontrovers diskutiert.","1","1024","2","48000","-16","53","4","135","-66.0","69.0","61.0","114.0","experiment","3","odd","23533.0","-810.0","-290.0","NA","1378","1379","4039","5529","39102","5571","39102","4038","NA","38812","27853","23528","5571","39102","4038","27851","Experiment","0","0","0","4","1920","geprüft.","53","25","175"
"<AN>Männer</AN>","C5","<RN>Arbeitnehmer*innen</RN>","undefined","undefined","True","53","4","<AN>Männer</AN>","135","-220.0","-85.0","61.0","114.0","undefined","undefined","#232323","1620","legacy","True","offen","legacy","legacy","undefined","undefined","undefined","0","0","0","0","0","31","0","31","0","0","31","31","31","0","31","0","50","-810.0","-270.5","5","792.0","95.3795051360616","Fri Jul 24 10:13:31 2026","The main experiment item","False","Im Rahmen einer Geschäftsveranstaltung findet derzeit ein Austausch über Arbeitsbedingungen und gesellschaftliche Entwicklungen statt. Die <RN>Arbeitnehmer*innen</RN> erwarten höhere Gehälter und klimatisierte Arbeitsplätze, aber diese <AN>Männer</AN> wollen auch weniger arbeiten. Die Frage nach den Konsequenzen bleibt offen.","experiment.osexp","C:\Users\sschu\Documents\GitHub\ET_course_project_gender-bias\experiment","False","mono","False","39","no","white","no","yes","1080","5","right","legacy","178.0","3.0","117","1","31","31","C:\Users\sschu\Documents\GitHub\ET_course_project_gender-bias\experiment\subject-3.csv","150","legacy","an_found","Neonatal Nightingale","4.1.9","136.0","178.0","2","0","right","NA","right","right","right","891.0","NA","1489","891","True","53","3","<RN>Arbeitnehmer*innen</RN>","412","-810.0","-398.0","-56.0","-3.0","2","legacy","1","Im Rahmen einer Geschäftsveranstaltung findet derzeit ein Austausch über Arbeitsbedingungen und gesellschaftliche Entwicklungen statt. Die <RN>Arbeitnehmer*innen</RN> erwarten höhere Gehälter und klimatisierte Arbeitsplätze, aber diese <AN>Männer</AN> wollen auch weniger arbeiten. Die Frage nach den Konsequenzen bleibt offen.","Im Rahmen einer Geschäftsveranstaltung findet derzeit ein Austausch über Arbeitsbedingungen und gesellschaftliche Entwicklungen statt. Die <RN>Arbeitnehmer*innen</RN> erwarten höhere Gehälter und klimatisierte Arbeitsplätze, aber diese <AN>Männer</AN> wollen auch weniger arbeiten. Die Frage nach den Konsequenzen bleibt offen.","0","1024","2","48000","-16","53","4","135","-85.0","50.0","61.0","114.0","experiment","3","odd","39129.0","-810.0","-290.0","NA","1378","1379","4039","5529","39124","5571","43600","4038","NA","43558","42666","39124","5571","39124","4038","42664","Experiment","0","0","0","5","1920","offen.","53","25","129"
"<AN>Frauen</AN>","C2","<RN>Ingenieure</RN>","undefined","undefined","True","53","4","<AN>Männer</AN>","135","-220.0","-85.0","61.0","114.0","undefined","undefined","#232323","1620","legacy","True","offen","legacy","legacy","undefined","undefined","undefined","0","0","0","0","0","32","0","32","0","0","32","32","32","0","32","0","50","-810.0","-270.5","5","792.0","95.3795051360616","Fri Jul 24 10:13:31 2026","The main experiment item","False","Im Rahmen einer Geschäftsveranstaltung findet derzeit ein Austausch über Arbeitsbedingungen und gesellschaftliche Entwicklungen statt. Die <RN>Arbeitnehmer*innen</RN> erwarten höhere Gehälter und klimatisierte Arbeitsplätze, aber diese <AN>Männer</AN> wollen auch weniger arbeiten. Die Frage nach den Konsequenzen bleibt offen.","experiment.osexp","C:\Users\sschu\Documents\GitHub\ET_course_project_gender-bias\experiment","False","mono","False","39","no","white","no","yes","1080","17","right","legacy","178.0","3.0","117","4","32","32","C:\Users\sschu\Documents\GitHub\ET_course_project_gender-bias\experiment\subject-3.csv","150","legacy","an_found","Neonatal Nightingale","4.1.9","136.0","178.0","2","0","right","NA","right","right","right","891.0","NA","1489","891","True","53","3","<RN>Arbeitnehmer*innen</RN>","412","-810.0","-398.0","-56.0","-3.0","2","legacy","1","Im Rahmen einer Geschäftsveranstaltung findet derzeit ein Austausch über Arbeitsbedingungen und gesellschaftliche Entwicklungen statt. Die <RN>Arbeitnehmer*innen</RN> erwarten höhere Gehälter und klimatisierte Arbeitsplätze, aber diese <AN>Männer</AN> wollen auch weniger arbeiten. Die Frage nach den Konsequenzen bleibt offen.","Im Rahmen einer städtischen Planungsrunde wird über die zukünftige Mobilität und den Ausbau des Nahverkehrs diskutiert. Die <RN>Ingenieurinnen</RN> diskutieren über nachhaltige Verkehrskonzepte und setzen sich für den Ausbau des ÖPNV ein, doch diese <AN>Männer</AN> lehnen die Vorschläge ab. Die nächsten Schritte werden derzeit kontrovers diskutiert.","1","1024","2","48000","-16","53","4","135","-85.0","50.0","61.0","114.0","experiment","3","odd","39129.0","-810.0","-290.0","NA","1378","1379","4039","5529","43622","5571","43622","4038","NA","43558","42666","39124","5571","43622","4038","42664","Experiment","0","0","0","5","1920","offen.","53","25","129"
"<AN>Männer</AN>","C1","<RN>Arbeitnehmer</RN>","undefined","undefined","True","53","4","<AN>Männer</AN>","135","-220.0","-85.0","61.0","114.0","undefined","undefined","#232323","1620","legacy","True","offen","legacy","legacy","undefined","undefined","undefined","0","0","0","0","0","33","0","33","0","0","33","33","33","0","33","0","50","-810.0","-270.5","5","792.0","95.3795051360616","Fri Jul 24 10:13:31 2026","The main experiment item","False","Im Rahmen einer Geschäftsveranstaltung findet derzeit ein Austausch über Arbeitsbedingungen und gesellschaftliche Entwicklungen statt. Die <RN>Arbeitnehmer*innen</RN> erwarten höhere Gehälter und klimatisierte Arbeitsplätze, aber diese <AN>Männer</AN> wollen auch weniger arbeiten. Die Frage nach den Konsequenzen bleibt offen.","experiment.osexp","C:\Users\sschu\Documents\GitHub\ET_course_project_gender-bias\experiment","False","mono","False","39","no","white","no","yes","1080","12","right","legacy","178.0","3.0","117","2","33","33","C:\Users\sschu\Documents\GitHub\ET_course_project_gender-bias\experiment\subject-3.csv","150","legacy","an_found","Neonatal Nightingale","4.1.9","136.0","178.0","2","0","right","NA","right","right","right","891.0","NA","1489","891","True","53","3","<RN>Arbeitnehmer*innen</RN>","412","-810.0","-398.0","-56.0","-3.0","2","legacy","1","Im Rahmen einer Geschäftsveranstaltung findet derzeit ein Austausch über Arbeitsbedingungen und gesellschaftliche Entwicklungen statt. Die <RN>Arbeitnehmer*innen</RN> erwarten höhere Gehälter und klimatisierte Arbeitsplätze, aber diese <AN>Männer</AN> wollen auch weniger arbeiten. Die Frage nach den Konsequenzen bleibt offen.","Auf einer Gewerkschaftsveranstaltung wird derzeit über Löhne, Arbeitsbedingungen und Arbeitnehmerrechte diskutiert. Die <RN>Beschäftigten</RN> fordern bessere Bezahlung und faire Arbeitsbedingungen, doch diese diskussionsfreudigen <AN>Frauen</AN> sehen vor allem strukturelle Probleme. Die kommenden Entwicklungen sind weiterhin Gegenstand von Diskussionen.","1","1024","2","48000","-16","53","4","135","-85.0","50.0","61.0","114.0","experiment","3","odd","39129.0","-810.0","-290.0","NA","1378","1379","4039","5529","43645","5571","43645","4038","NA","43558","42666","39124","5571","43645","4038","42664","Experiment","0","0","0","5","1920","offen.","53","25","129"
"<AN>Frauen</AN>","C4","<RN>Krankenschwestern</RN>","undefined","undefined","True","53","4","<AN>Frauen</AN>","132","-131.0","1.0","61.0","114.0","undefined","undefined","#232323","1620","legacy","True","diskutiert","legacy","legacy","undefined","undefined","undefined","0","0","0","0","0","34","0","34","0","0","34","34","34","0","34","0","50","-810.0","-270.5","5","1003.0","99.0113629842555","Fri Jul 24 10:13:31 2026","The main experiment item","False","Bei einer Informationsveranstaltung im Krankenhaus wird über aktuelle Impfreformen und deren Auswirkungen gesprochen. Die <RN>Krankenschwestern</RN> diskutieren über Langzeitfolgen von Corona und setzen sich für mehr Unterstützung ein, doch diese <AN>Frauen</AN> lehnen die Vorschläge ab. Die nächsten Schritte werden derzeit kontrovers diskutiert.","experiment.osexp","C:\Users\sschu\Documents\GitHub\ET_course_project_gender-bias\experiment","False","mono","False","39","no","white","no","yes","1080","16","right","legacy","178.0","3.0","117","1","34","34","C:\Users\sschu\Documents\GitHub\ET_course_project_gender-bias\experiment\subject-3.csv","150","legacy","an_found","Neonatal Nightingale","4.1.9","461.0","178.0","2","0","right","NA","right","right","right","924.0","NA","1489","924","True","53","2","<RN>Krankenschwestern</RN>","386","370.0","756.0","-173.0","-120.0","2","legacy","1","Bei einer Informationsveranstaltung im Krankenhaus wird über aktuelle Impfreformen und deren Auswirkungen gesprochen. Die <RN>Krankenschwestern</RN> diskutieren über Langzeitfolgen von Corona und setzen sich für mehr Unterstützung ein, doch diese <AN>Männer</AN> lehnen die Vorschläge ab. Die nächsten Schritte werden derzeit kontrovers diskutiert.","Bei einer Informationsveranstaltung im Krankenhaus wird über aktuelle Impfreformen und deren Auswirkungen gesprochen. Die <RN>Krankenschwestern</RN> diskutieren über Langzeitfolgen von Corona und setzen sich für mehr Unterstützung ein, doch diese <AN>Männer</AN> lehnen die Vorschläge ab. Die nächsten Schritte werden derzeit kontrovers diskutiert.","0","1024","2","48000","-16","53","4","132","1.0","133.0","61.0","114.0","experiment","3","odd","43674.0","-810.0","-290.0","NA","1378","1379","4039","5529","43669","5571","49097","4038","NA","49055","48131","43669","5571","43669","4038","48129","Experiment","0","0","0","6","1920","diskutiert.","53","25","243"
"<AN>Männer</AN>","C3","<RN>Arbeitnehmerinnen</RN>","undefined","undefined","True","53","4","<AN>Frauen</AN>","132","-131.0","1.0","61.0","114.0","undefined","undefined","#232323","1620","legacy","True","diskutiert","legacy","legacy","undefined","undefined","undefined","0","0","0","0","0","35","0","35","0","0","35","35","35","0","35","0","50","-810.0","-270.5","5","1003.0","99.0113629842555","Fri Jul 24 10:13:31 2026","The main experiment item","False","Bei einer Informationsveranstaltung im Krankenhaus wird über aktuelle Impfreformen und deren Auswirkungen gesprochen. Die <RN>Krankenschwestern</RN> diskutieren über Langzeitfolgen von Corona und setzen sich für mehr Unterstützung ein, doch diese <AN>Frauen</AN> lehnen die Vorschläge ab. Die nächsten Schritte werden derzeit kontrovers diskutiert.","experiment.osexp","C:\Users\sschu\Documents\GitHub\ET_course_project_gender-bias\experiment","False","mono","False","39","no","white","no","yes","1080","5","right","legacy","178.0","3.0","117","5","35","35","C:\Users\sschu\Documents\GitHub\ET_course_project_gender-bias\experiment\subject-3.csv","150","legacy","an_found","Neonatal Nightingale","4.1.9","461.0","178.0","2","0","right","NA","right","right","right","924.0","NA","1489","924","True","53","2","<RN>Krankenschwestern</RN>","386","370.0","756.0","-173.0","-120.0","2","legacy","1","Bei einer Informationsveranstaltung im Krankenhaus wird über aktuelle Impfreformen und deren Auswirkungen gesprochen. Die <RN>Krankenschwestern</RN> diskutieren über Langzeitfolgen von Corona und setzen sich für mehr Unterstützung ein, doch diese <AN>Männer</AN> lehnen die Vorschläge ab. Die nächsten Schritte werden derzeit kontrovers diskutiert.","Im Rahmen einer Geschäftsveranstaltung findet derzeit ein Austausch über Arbeitsbedingungen und gesellschaftliche Entwicklungen statt. Die <RN>Arbeitnehmer*innen</RN> erwarten höhere Gehälter und klimatisierte Arbeitsplätze, aber diese <AN>Männer</AN> wollen auch weniger arbeiten. Die Frage nach den Konsequenzen bleibt offen.","1","1024","2","48000","-16","53","4","132","1.0","133.0","61.0","114.0","experiment","3","odd","43674.0","-810.0","-290.0","NA","1378","1379","4039","5529","49124","5571","49124","4038","NA","49055","48131","43669","5571","49124","4038","48129","Experiment","0","0","0","6","1920","diskutiert.","53","25","243"
"<AN>Frauen</AN>","C4","<RN>Expertinnen</RN>","undefined","undefined","True","53","4","<AN>Frauen</AN>","132","-63.0","69.0","61.0","114.0","undefined","undefined","#232323","1620","legacy","True","geprüft","legacy","legacy","undefined","undefined","undefined","0","0","0","0","0","36","0","36","0","0","36","36","36","0","36","0","50","-810.0","-270.5","5","1052.0","98.23059604827816","Fri Jul 24 10:13:31 2026","The main experiment item","False","Im Rahmen einer universitären Veranstaltung werden aktuelle Fragestellungen der Rüstungsindustrie behandelt. Die große Mehrheit dieser <RN>Expertinnen</RN> sieht eine stärkere Aufrüstung für Deutschland als notwendig, doch diese Gruppe von <AN>Frauen</AN> kritisiert dessen Finanzierung. Die Auswirkungen der Entscheidung werden noch geprüft.","experiment.osexp","C:\Users\sschu\Documents\GitHub\ET_course_project_gender-bias\experiment","False","mono","False","39","no","white","no","yes","1080","10","right","legacy","178.0","3.0","117","1","36","36","C:\Users\sschu\Documents\GitHub\ET_course_project_gender-bias\experiment\subject-3.csv","150","legacy","an_found","Neonatal Nightingale","4.1.9","442.0","178.0","2","0","right","NA","right","right","right","871.0","NA","1489","871","True","53","3","<RN>Expertinnen</RN>","248","-651.0","-403.0","-56.0","-3.0","2","legacy","1","Im Rahmen einer universitären Veranstaltung werden aktuelle Fragestellungen der Rüstungsindustrie behandelt. Die große Mehrheit dieser <RN>Fachleute</RN> sieht eine stärkere Aufrüstung für Deutschland als notwendig, doch diese Gruppe von <AN>Frauen</AN> kritisiert dessen Finanzierung. Die Auswirkungen der Entscheidung werden noch geprüft.","Im Rahmen einer universitären Veranstaltung werden aktuelle Fragestellungen der Rüstungsindustrie behandelt. Die große Mehrheit dieser <RN>Fachleute</RN> sieht eine stärkere Aufrüstung für Deutschland als notwendig, doch diese Gruppe von <AN>Frauen</AN> kritisiert dessen Finanzierung. Die Auswirkungen der Entscheidung werden noch geprüft.","0","1024","2","48000","-16","53","4","132","69.0","201.0","61.0","114.0","experiment","3","odd","49154.0","-810.0","-290.0","NA","1378","1379","4039","5529","49148","5571","53513","4038","NA","53471","52599","49148","5571","49148","4038","52597","Experiment","0","0","0","7","1920","geprüft.","53","25","175"
"<AN>Frauen</AN>","C4","<RN>Arbeitnehmerinnen</RN>","undefined","undefined","True","53","4","<AN>Frauen</AN>","132","-63.0","69.0","61.0","114.0","undefined","undefined","#232323","1620","legacy","True","geprüft","legacy","legacy","undefined","undefined","undefined","0","0","0","0","0","37","0","37","0","0","37","37","37","0","37","0","50","-810.0","-270.5","5","1052.0","98.23059604827816","Fri Jul 24 10:13:31 2026","The main experiment item","False","Im Rahmen einer universitären Veranstaltung werden aktuelle Fragestellungen der Rüstungsindustrie behandelt. Die große Mehrheit dieser <RN>Expertinnen</RN> sieht eine stärkere Aufrüstung für Deutschland als notwendig, doch diese Gruppe von <AN>Frauen</AN> kritisiert dessen Finanzierung. Die Auswirkungen der Entscheidung werden noch geprüft.","experiment.osexp","C:\Users\sschu\Documents\GitHub\ET_course_project_gender-bias\experiment","False","mono","False","39","no","white","no","yes","1080","12","right","legacy","178.0","3.0","117","5","37","37","C:\Users\sschu\Documents\GitHub\ET_course_project_gender-bias\experiment\subject-3.csv","150","legacy","an_found","Neonatal Nightingale","4.1.9","442.0","178.0","2","0","right","NA","right","right","right","871.0","NA","1489","871","True","53","3","<RN>Expertinnen</RN>","248","-651.0","-403.0","-56.0","-3.0","2","legacy","1","Im Rahmen einer universitären Veranstaltung werden aktuelle Fragestellungen der Rüstungsindustrie behandelt. Die große Mehrheit dieser <RN>Fachleute</RN> sieht eine stärkere Aufrüstung für Deutschland als notwendig, doch diese Gruppe von <AN>Frauen</AN> kritisiert dessen Finanzierung. Die Auswirkungen der Entscheidung werden noch geprüft.","Auf einer Gewerkschaftsveranstaltung wird derzeit über Löhne, Arbeitsbedingungen und Arbeitnehmerrechte diskutiert. Die <RN>Beschäftigten</RN> fordern bessere Bezahlung und faire Arbeitsbedingungen, doch diese <AN>Frauen</AN> sehen vor allem strukturelle Probleme. Die kommenden Entwicklungen sind weiterhin Gegenstand von Diskussionen.","1","1024","2","48000","-16","53","4","132","69.0","201.0","61.0","114.0","experiment","3","odd","49154.0","-810.0","-290.0","NA","1378","1379","4039","5529","53538","5571","53538","4038","NA","53471","52599","49148","5571","53538","4038","52597","Experiment","0","0","0","7","1920","geprüft.","53","25","175"
"<AN>Männer</AN>","C5","<RN>Ingenieur*innen</RN>","undefined","undefined","True","53","4","<AN>Männer</AN>","135","365.0","500.0","61.0","114.0","undefined","undefined","#232323","1620","legacy","True","diskutiert","legacy","legacy","undefined","undefined","undefined","0","0","0","0","0","38","0","38","0","0","38","38","38","0","38","0","50","-810.0","-270.5","6","1432.0","99.28368446023747","Fri Jul 24 10:13:31 2026","The main experiment item","False","Im Rahmen einer städtischen Planungsrunde wird über die zukünftige Mobilität und den Ausbau des Nahverkehrs diskutiert. Die <RN>Ingenieur*innen</RN> diskutieren über nachhaltige Verkehrskonzepte und setzen sich für den Ausbau des ÖPNV ein, doch diese <AN>Männer</AN> lehnen die Vorschläge ab. Die nächsten Schritte werden derzeit kontrovers diskutiert.","experiment.osexp","C:\Users\sschu\Documents\GitHub\ET_course_project_gender-bias\experiment","False","mono","False","39","no","white","no","yes","1080","17","right","legacy","295.0","3.0","117","1","38","38","C:\Users\sschu\Documents\GitHub\ET_course_project_gender-bias\experiment\subject-3.csv","150","legacy","an_found","Neonatal Nightingale","4.1.9","-542.0","295.0","2","0","right","NA","right","right","right","905.0","NA","1489","905","True","53","3","<RN>Ingenieur*innen</RN>","339","-810.0","-471.0","-56.0","-3.0","2","legacy","1","Im Rahmen einer städtischen Planungsrunde wird über die zukünftige Mobilität und den Ausbau des Nahverkehrs diskutiert. Die <RN>Ingenieurinnen</RN> diskutieren über nachhaltige Verkehrskonzepte und setzen sich für den Ausbau des ÖPNV ein, doch diese <AN>Männer</AN> lehnen die Vorschläge ab. Die nächsten Schritte werden derzeit kontrovers diskutiert.","Im Rahmen einer städtischen Planungsrunde wird über die zukünftige Mobilität und den Ausbau des Nahverkehrs diskutiert. Die <RN>Ingenieurinnen</RN> diskutieren über nachhaltige Verkehrskonzepte und setzen sich für den Ausbau des ÖPNV ein, doch diese <AN>Männer</AN> lehnen die Vorschläge ab. Die nächsten Schritte werden derzeit kontrovers diskutiert.","0","1024","2","48000","-16","53","4","135","500.0","635.0","61.0","114.0","experiment","3","odd","53568.0","-810.0","-290.0","NA","1378","1379","4039","5529","53561","5571","58435","4038","NA","58393","57488","53561","5571","53561","4038","57486","Experiment","0","0","0","8","1920","diskutiert.","53","25","243"
"<AN>Frauen</AN>","C6","<RN>Student*innen</RN>","undefined","undefined","True","53","4","<AN>Männer</AN>","135","365.0","500.0","61.0","114.0","undefined","undefined","#232323","1620","legacy","True","diskutiert","legacy","legacy","undefined","undefined","undefined","0","0","0","0","0","39","0","39","0","0","39","39","39","0","39","0","50","-810.0","-270.5","6","1432.0","99.28368446023747","Fri Jul 24 10:13:31 2026","The main experiment item","False","Im Rahmen einer städtischen Planungsrunde wird über die zukünftige Mobilität und den Ausbau des Nahverkehrs diskutiert. Die <RN>Ingenieur*innen</RN> diskutieren über nachhaltige Verkehrskonzepte und setzen sich für den Ausbau des ÖPNV ein, doch diese <AN>Männer</AN> lehnen die Vorschläge ab. Die nächsten Schritte werden derzeit kontrovers diskutiert.","experiment.osexp","C:\Users\sschu\Documents\GitHub\ET_course_project_gender-bias\experiment","False","mono","False","39","no","white","no","yes","1080","1","right","legacy","295.0","3.0","117","6","39","39","C:\Users\sschu\Documents\GitHub\ET_course_project_gender-bias\experiment\subject-3.csv","150","legacy","an_found","Neonatal Nightingale","4.1.9","-542.0","295.0","2","0","right","NA","right","right","right","905.0","NA","1489","905","True","53","3","<RN>Ingenieur*innen</RN>","339","-810.0","-471.0","-56.0","-3.0","2","legacy","1","Im Rahmen einer städtischen Planungsrunde wird über die zukünftige Mobilität und den Ausbau des Nahverkehrs diskutiert. Die <RN>Ingenieurinnen</RN> diskutieren über nachhaltige Verkehrskonzepte und setzen sich für den Ausbau des ÖPNV ein, doch diese <AN>Männer</AN> lehnen die Vorschläge ab. Die nächsten Schritte werden derzeit kontrovers diskutiert.","Bei einer Podiumsdiskussion an der Universität wird über aktuelle gesellschaftliche Themen gesprochen. Die <RN>Studenten</RN> müssten wieder stärker leistungsorientiert gefördert werden, doch die Mehrheit dieser dort teilnehmenden <AN>Frauen</AN> kritisiert die neuen Anforderungen. Die weitere Entwicklung bleibt Gegenstand öffentlicher Debatten.","1","1024","2","48000","-16","53","4","135","500.0","635.0","61.0","114.0","experiment","3","odd","53568.0","-810.0","-290.0","NA","1378","1379","4039","5529","58458","5571","58458","4038","NA","58393","57488","53561","5571","58458","4038","57486","Experiment","0","0","0","8","1920","diskutiert.","53","25","243"
"<AN>Männer</AN>","C3","<RN>Professorinnen</RN>","undefined","undefined","True","53","4","<AN>Männer</AN>","135","-65.0","70.0","61.0","114.0","undefined","undefined","#232323","1620","legacy","True","diskutiert","legacy","legacy","undefined","undefined","undefined","0","0","0","0","0","40","0","40","0","0","40","40","40","0","40","0","50","-810.0","-270.5","5","1003.0","99.14257410416576","Fri Jul 24 10:13:31 2026","The main experiment item","False","Im Rahmen einer öffentlichen Veranstaltung wird über die Zukunft der Hochschulen und die Forschungsförderung diskutiert. Die <RN>Professorinnen</RN> diskutieren über die Zukunft der Hochschulen und setzen sich für mehr Forschungsgelder ein, doch diese <AN>Männer</AN> lehnen die Vorschläge ab. Die nächsten Schritte werden derzeit kontrovers diskutiert.","experiment.osexp","C:\Users\sschu\Documents\GitHub\ET_course_project_gender-bias\experiment","False","mono","False","39","no","white","no","yes","1080","15","right","legacy","178.0","3.0","117","1","40","40","C:\Users\sschu\Documents\GitHub\ET_course_project_gender-bias\experiment\subject-3.csv","150","legacy","an_found","Neonatal Nightingale","4.1.9","461.0","178.0","2","0","right","NA","right","right","right","968.0","NA","1489","968","True","53","2","<RN>Professorinnen</RN>","317","461.0","778.0","-173.0","-120.0","2","legacy","1","Im Rahmen einer öffentlichen Veranstaltung wird über die Zukunft der Hochschulen und die Forschungsförderung diskutiert. Die <RN>Professorinnen</RN> diskutieren über die Zukunft der Hochschulen und setzen sich für mehr Forschungsgelder ein, doch diese <AN>Männer</AN> lehnen die Vorschläge ab. Die nächsten Schritte werden derzeit kontrovers diskutiert.","Im Rahmen einer öffentlichen Veranstaltung wird über die Zukunft der Hochschulen und die Forschungsförderung diskutiert. Die <RN>Professorinnen</RN> diskutieren über die Zukunft der Hochschulen und setzen sich für mehr Forschungsgelder ein, doch diese <AN>Männer</AN> lehnen die Vorschläge ab. Die nächsten Schritte werden derzeit kontrovers diskutiert.","0","1024","2","48000","-16","53","4","135","70.0","205.0","61.0","114.0","experiment","3","odd","58487.0","-810.0","-290.0","NA","1378","1379","4039","5529","58480","5571","63243","4038","NA","63201","62232","58480","5571","58480","4038","62230","Experiment","0","0","0","9","1920","diskutiert.","53","25","243"
"<AN>Frauen</AN>","C6","<RN>Ingenieur*innen</RN>","undefined","undefined","True","53","4","<AN>Männer</AN>","135","-65.0","70.0","61.0","114.0","undefined","undefined","#232323","1620","legacy","True","diskutiert","legacy","legacy","undefined","undefined","undefined","0","0","0","0","0","41","0","41","0","0","41","41","41","0","41","0","50","-810.0","-270.5","5","1003.0","99.14257410416576","Fri Jul 24 10:13:31 2026","The main experiment item","False","Im Rahmen einer öffentlichen Veranstaltung wird über die Zukunft der Hochschulen und die Forschungsförderung diskutiert. Die <RN>Professorinnen</RN> diskutieren über die Zukunft der Hochschulen und setzen sich für mehr Forschungsgelder ein, doch diese <AN>Männer</AN> lehnen die Vorschläge ab. Die nächsten Schritte werden derzeit kontrovers diskutiert.","experiment.osexp","C:\Users\sschu\Documents\GitHub\ET_course_project_gender-bias\experiment","False","mono","False","39","no","white","no","yes","1080","17","right","legacy","178.0","3.0","117","2","41","41","C:\Users\sschu\Documents\GitHub\ET_course_project_gender-bias\experiment\subject-3.csv","150","legacy","an_found","Neonatal Nightingale","4.1.9","461.0","178.0","2","0","right","NA","right","right","right","968.0","NA","1489","968","True","53","2","<RN>Professorinnen</RN>","317","461.0","778.0","-173.0","-120.0","2","legacy","1","Im Rahmen einer öffentlichen Veranstaltung wird über die Zukunft der Hochschulen und die Forschungsförderung diskutiert. Die <RN>Professorinnen</RN> diskutieren über die Zukunft der Hochschulen und setzen sich für mehr Forschungsgelder ein, doch diese <AN>Männer</AN> lehnen die Vorschläge ab. Die nächsten Schritte werden derzeit kontrovers diskutiert.","Im Rahmen einer städtischen Planungsrunde wird über die zukünftige Mobilität und den Ausbau des Nahverkehrs diskutiert. Die <RN>Ingenieurinnen</RN> diskutieren über Verkehrskonzepte und setzen sich für den Ausbau des ÖPNV ein, doch diese <AN>Männer</AN> lehnen die Vorschläge ab. Die nächsten Schritte werden derzeit kontrovers diskutiert.","1","1024","2","48000","-16","53","4","135","70.0","205.0","61.0","114.0","experiment","3","odd","58487.0","-810.0","-290.0","NA","1378","1379","4039","5529","63269","5571","63269","4038","NA","63201","62232","58480","5571","63269","4038","62230","Experiment","0","0","0","9","1920","diskutiert.","53","25","243"
"<AN>Männer</AN>","C1","<RN>Ingenieure</RN>","undefined","undefined","True","53","4","<AN>Männer</AN>","135","-65.0","70.0","61.0","114.0","undefined","undefined","#232323","1620","legacy","True","diskutiert","legacy","legacy","undefined","undefined","undefined","0","0","0","0","0","42","0","42","0","0","42","42","42","0","42","0","50","-810.0","-270.5","5","1003.0","99.14257410416576","Fri Jul 24 10:13:31 2026","The main experiment item","False","Im Rahmen einer öffentlichen Veranstaltung wird über die Zukunft der Hochschulen und die Forschungsförderung diskutiert. Die <RN>Professorinnen</RN> diskutieren über die Zukunft der Hochschulen und setzen sich für mehr Forschungsgelder ein, doch diese <AN>Männer</AN> lehnen die Vorschläge ab. Die nächsten Schritte werden derzeit kontrovers diskutiert.","experiment.osexp","C:\Users\sschu\Documents\GitHub\ET_course_project_gender-bias\experiment","False","mono","False","39","no","white","no","yes","1080","17","right","legacy","178.0","3.0","117","3","42","42","C:\Users\sschu\Documents\GitHub\ET_course_project_gender-bias\experiment\subject-3.csv","150","legacy","an_found","Neonatal Nightingale","4.1.9","461.0","178.0","2","0","right","NA","right","right","right","968.0","NA","1489","968","True","53","2","<RN>Professorinnen</RN>","317","461.0","778.0","-173.0","-120.0","2","legacy","1","Im Rahmen einer öffentlichen Veranstaltung wird über die Zukunft der Hochschulen und die Forschungsförderung diskutiert. Die <RN>Professorinnen</RN> diskutieren über die Zukunft der Hochschulen und setzen sich für mehr Forschungsgelder ein, doch diese <AN>Männer</AN> lehnen die Vorschläge ab. Die nächsten Schritte werden derzeit kontrovers diskutiert.","Im Rahmen einer städtischen Planungsrunde wird über die zukünftige Mobilität und den Ausbau des Nahverkehrs diskutiert. Die <RN>Ingenieurinnen</RN> diskutieren über Verkehrskonzepte und setzen sich für den Ausbau des ÖPNV ein, doch diese <AN>Männer</AN> lehnen die Vorschläge ab. Die nächsten Schritte werden derzeit kontrovers diskutiert.","1","1024","2","48000","-16","53","4","135","70.0","205.0","61.0","114.0","experiment","3","odd","58487.0","-810.0","-290.0","NA","1378","1379","4039","5529","63293","5571","63293","4038","NA","63201","62232","58480","5571","63293","4038","62230","Experiment","0","0","0","9","1920","diskutiert.","53","25","243"
"<AN>Männer</AN>","C3","<RN>Dozentinnen</RN>","undefined","undefined","True","53","4","<AN>Männer</AN>","135","-339.0","-204.0","61.0","114.0","undefined","undefined","#232323","1620","legacy","True","an","legacy","legacy","undefined","undefined","undefined","0","0","0","0","0","43","0","43","0","0","43","43","43","0","43","0","50","-810.0","-270.5","5","795.0","99.37932380530671","Fri Jul 24 10:13:31 2026","The main experiment item","False","Auf einer schulischen Tagung werden aktuelle Kontroversen rund um Vorlesungsführung und Leistungsbewertung diskutiert. Die <RN>Dozentinnen</RN> fordern erhöhte Leistungsorientierung und strengere Notenvergabe im Lehrplan, doch diese <AN>Männer</AN> stoßen dabei auf Gegendruck von Eltern. Die Debatte über das Thema hält weiter an.","experiment.osexp","C:\Users\sschu\Documents\GitHub\ET_course_project_gender-bias\experiment","False","mono","False","39","no","white","no","yes","1080","9","right","legacy","178.0","3.0","117","1","43","43","C:\Users\sschu\Documents\GitHub\ET_course_project_gender-bias\experiment\subject-3.csv","150","legacy","an_found","Neonatal Nightingale","4.1.9","69.0","178.0","2","0","right","NA","right","right","right","969.0","NA","1489","969","True","53","2","<RN>Dozentinnen</RN>","249","488.0","737.0","-173.0","-120.0","2","legacy","1","Auf einer schulischen Tagung werden aktuelle Kontroversen rund um Vorlesungsführung und Leistungsbewertung diskutiert. Die <RN>Dozent*innen</RN> fordern erhöhte Leistungsorientierung und strengere Notenvergabe im Lehrplan, doch diese <AN>Männer</AN> stoßen dabei auf Gegendruck von Eltern. Die Debatte über das Thema hält weiter an.","Auf einer schulischen Tagung werden aktuelle Kontroversen rund um Vorlesungsführung und Leistungsbewertung diskutiert. Die <RN>Dozent*innen</RN> fordern erhöhte Leistungsorientierung und strengere Notenvergabe im Lehrplan, doch diese <AN>Männer</AN> stoßen dabei auf Gegendruck von Eltern. Die Debatte über das Thema hält weiter an.","0","1024","2","48000","-16","53","4","135","-204.0","-69.0","61.0","114.0","experiment","3","odd","63320.0","-810.0","-290.0","NA","1378","1379","4039","5529","63315","5571","67794","4038","NA","67752","66783","63315","5571","63315","4038","66780","Experiment","0","0","0","10","1920","an.","53","25","59"
